Calibration_1,AccX_1,AccY_1,AccZ_1,Roll_1,Pitch_1,Yaw_1,QuatW_1,QuatX_1,QuatY_1,QuatZ_1,Calibration_2,AccX_2,AccY_2,AccZ_2,Roll_2,Pitch_2,Yaw_2,QuatW_2,QuatX_2,QuatY_2,QuatZ_2
0.0,0.12,44.69,113.87,0.12,44.69,113.87,0.6,-0.55,-0.59,-0.0,0.0,0.0,0.0,0.0,0.0,0.0,0.0,0.0,0.0,0.0,0.0
0.0,0.19,44.63,113.94,0.19,44.63,113.94,0.6,-0.55,-0.59,-0.0,0.0,0.0,-0.06,0.0,0.0,-0.06,0.0,1.0,-0.0,0.0,-0.0
0.0,0.12,44.63,114.0,0.12,44.63,114.0,0.6,-0.55,-0.59,-0.0,0.0,0.0,-0.06,0.0,0.0,-0.06,0.0,1.0,-0.0,0.0,-0.0
0.0,0.19,44.63,114.06,0.19,44.63,114.06,0.6,-0.55,-0.59,-0.0,0.0,0.06,58.75,-40.88,0.06,58.75,-40.88,0.83,0.2,-0.51,-0.0
0.0,0.12,44.56,114.0,0.12,44.56,114.0,0.6,-0.55,-0.59,-0.0,0.0,0.06,58.69,-40.88,0.06,58.69,-40.88,0.83,0.2,-0.51,-0.0
0.0,0.12,44.63,113.94,0.12,44.63,113.94,0.6,-0.55,-0.59,-0.0,0.0,0.06,58.69,-40.81,0.06,58.69,-40.81,0.83,0.2,-0.51,-0.0
0.0,0.12,44.63,113.94,0.12,44.63,113.94,0.6,-0.55,-0.59,-0.0,0.0,0.12,58.63,-40.81,0.12,58.63,-40.81,0.83,0.2,-0.51,-0.0
0.0,0.06,44.56,114.0,0.06,44.56,114.0,0.6,-0.55,-0.59,-0.0,0.0,0.12,58.63,-40.81,0.12,58.63,-40.81,0.83,0.2,-0.51,-0.0
0.0,0.0,44.56,114.0,0.0,44.56,114.0,0.6,-0.55,-0.59,-0.0,0.0,0.12,58.63,-40.81,0.12,58.63,-40.81,0.83,0.2,-0.51,-0.0
0.0,0.06,44.56,114.0,0.06,44.56,114.0,0.6,-0.55,-0.59,-0.0,0.0,0.12,58.63,-40.75,0.12,58.63,-40.75,0.83,0.2,-0.51,-0.0
0.0,0.06,44.5,114.06,0.06,44.5,114.06,0.6,-0.55,-0.59,-0.0,0.0,0.12,58.56,-40.63,0.12,58.56,-40.63,0.84,0.2,-0.51,-0.0
0.0,0.06,44.56,114.0,0.06,44.56,114.0,0.6,-0.55,-0.59,-0.0,0.0,0.12,58.56,-40.44,0.12,58.56,-40.44,0.84,0.2,-0.51,-0.0
0.0,0.12,44.63,113.94,0.12,44.63,113.94,0.6,-0.55,-0.59,-0.0,0.0,0.12,58.5,-40.44,0.12,58.5,-40.44,0.84,0.2,-0.51,-0.0
0.0,0.06,44.56,113.94,0.06,44.56,113.94,0.6,-0.55,-0.59,-0.0,0.0,0.12,58.5,-40.31,0.12,58.5,-40.31,0.84,0.2,-0.51,-0.0
0.0,0.06,44.69,113.87,0.06,44.69,113.87,0.6,-0.55,-0.59,-0.0,0.0,0.12,58.44,-40.19,0.12,58.44,-40.19,0.84,0.2,-0.51,-0.0
0.0,0.19,44.63,114.0,0.19,44.63,114.0,0.6,-0.55,-0.59,-0.0,0.0,0.12,58.44,-40.0,0.12,58.44,-40.0,0.84,0.2,-0.51,-0.0
0.0,0.12,44.56,114.31,0.12,44.56,114.31,0.59,-0.55,-0.59,-0.0,0.0,0.06,58.38,-39.88,0.06,58.38,-39.88,0.84,0.2,-0.51,-0.0
0.0,0.12,44.56,114.37,0.12,44.56,114.37,0.59,-0.55,-0.59,-0.0,0.0,0.06,58.38,-40.0,0.06,58.38,-40.0,0.84,0.2,-0.51,-0.0
0.0,0.25,44.63,114.12,0.25,44.63,114.12,0.6,-0.55,-0.59,-0.0,0.0,0.12,58.38,-39.88,0.12,58.38,-39.88,0.84,0.2,-0.51,-0.0
0.0,0.37,44.94,113.81,0.37,44.94,113.81,0.6,-0.54,-0.59,-0.0,0.0,0.06,58.44,-39.81,0.06,58.44,-39.81,0.84,0.2,-0.51,-0.0
0.0,0.69,45.44,114.25,0.69,45.44,114.25,0.59,-0.54,-0.6,-0.0,0.0,0.31,58.69,-40.38,0.31,58.69,-40.38,0.83,0.2,-0.51,-0.0
0.0,0.88,45.25,116.31,0.88,45.25,116.31,0.59,-0.54,-0.6,-0.0,0.0,0.5,59.0,-41.0,0.5,59.0,-41.0,0.83,0.2,-0.52,-0.01
0.0,1.37,45.13,118.94,1.37,45.13,118.94,0.57,-0.55,-0.61,-0.01,0.0,1.06,59.44,-42.13,1.06,59.44,-42.13,0.83,0.2,-0.52,-0.01
0.0,3.56,46.31,121.81,3.56,46.31,121.81,0.56,-0.54,-0.62,-0.02,0.0,1.69,60.19,-43.56,1.69,60.19,-43.56,0.82,0.2,-0.53,-0.01
0.0,6.44,47.63,122.31,6.44,47.63,122.31,0.56,-0.54,-0.62,-0.03,0.0,2.44,60.94,-45.06,2.44,60.94,-45.06,0.82,0.2,-0.54,-0.02
0.0,8.63,50.31,121.81,8.63,50.31,121.81,0.58,-0.51,-0.63,-0.05,0.0,2.94,61.44,-45.19,2.94,61.44,-45.19,0.82,0.19,-0.54,-0.02
0.0,12.88,53.88,121.69,12.88,53.88,121.69,0.58,-0.5,-0.64,-0.08,0.0,3.38,61.81,-45.56,3.38,61.81,-45.56,0.81,0.19,-0.55,-0.03
0.0,20.75,58.69,122.31,20.75,58.69,122.31,0.6,-0.49,-0.62,-0.13,0.0,4.06,62.5,-46.63,4.06,62.5,-46.63,0.81,0.19,-0.56,-0.03
0.0,26.25,61.44,111.94,26.25,61.44,111.94,0.63,-0.48,-0.58,-0.15,0.0,4.5,62.94,-46.69,4.5,62.94,-46.69,0.81,0.18,-0.56,-0.03
0.0,28.12,65.31,106.44,28.12,65.31,106.44,0.64,-0.45,-0.6,-0.16,0.0,4.81,63.38,-46.44,4.81,63.38,-46.44,0.81,0.18,-0.56,-0.04
0.0,31.44,68.12,107.87,31.44,68.12,107.87,0.64,-0.45,-0.59,-0.19,0.0,5.38,64.06,-47.63,5.38,64.06,-47.63,0.8,0.17,-0.57,-0.04
0.0,37.06,68.62,103.56,37.06,68.62,103.56,0.64,-0.47,-0.56,-0.22,0.0,5.69,64.75,-48.31,5.69,64.75,-48.31,0.8,0.17,-0.57,-0.04
0.0,39.44,70.31,102.94,39.44,70.31,102.94,0.64,-0.45,-0.58,-0.23,0.0,6.13,65.12,-47.63,6.13,65.12,-47.63,0.8,0.16,-0.58,-0.04
0.0,41.31,73.44,105.62,41.31,73.44,105.62,0.64,-0.44,-0.59,-0.24,0.0,6.88,65.75,-48.25,6.88,65.75,-48.25,0.8,0.16,-0.58,-0.05
0.0,46.38,75.44,103.44,46.38,75.44,103.44,0.63,-0.44,-0.58,-0.27,0.0,7.5,66.44,-48.88,7.5,66.44,-48.88,0.79,0.15,-0.59,-0.05
0.0,49.31,74.94,98.81,49.31,74.94,98.81,0.63,-0.46,-0.56,-0.29,0.0,7.94,66.87,-48.38,7.94,66.87,-48.38,0.79,0.14,-0.59,-0.05
0.0,50.44,75.69,106.44,50.44,75.69,106.44,0.62,-0.46,-0.57,-0.29,0.0,8.25,67.0,-48.25,8.25,67.0,-48.25,0.79,0.14,-0.59,-0.06
0.0,51.94,76.5,113.44,51.94,76.5,113.44,0.6,-0.46,-0.58,-0.3,0.0,8.81,67.19,-49.44,8.81,67.19,-49.44,0.79,0.14,-0.6,-0.06
0.0,55.31,76.87,120.56,55.31,76.87,120.56,0.58,-0.48,-0.58,-0.31,0.0,9.5,67.94,-54.5,9.5,67.94,-54.5,0.77,0.15,-0.61,-0.07
0.0,57.31,74.87,130.81,57.31,74.87,130.81,0.55,-0.5,-0.59,-0.31,0.0,10.13,67.87,-55.56,10.13,67.87,-55.56,0.78,0.14,-0.61,-0.07
0.0,57.69,71.06,143.44,57.69,71.06,143.44,0.52,-0.52,-0.61,-0.29,0.0,10.81,66.44,-52.06,10.81,66.44,-52.06,0.79,0.15,-0.59,-0.08
0.0,58.0,66.44,152.44,58.0,66.44,152.44,0.48,-0.54,-0.63,-0.27,0.0,12.06,64.56,-50.88,12.06,64.56,-50.88,0.8,0.15,-0.58,-0.09
0.0,58.13,60.69,158.0,58.13,60.69,158.0,0.44,-0.56,-0.65,-0.25,0.0,13.0,62.19,-48.0,13.0,62.19,-48.0,0.81,0.15,-0.56,-0.09
0.0,57.25,55.63,163.06,57.25,55.63,163.06,0.41,-0.56,-0.68,-0.22,0.0,13.06,58.88,-42.19,13.06,58.88,-42.19,0.84,0.15,-0.52,-0.09
0.0,55.0,52.25,164.81,55.0,52.25,164.81,0.4,-0.56,-0.7,-0.2,0.0,11.5,52.69,-33.56,11.5,52.69,-33.56,0.87,0.15,-0.46,-0.08
0.0,51.75,50.69,164.69,51.75,50.69,164.69,0.4,-0.55,-0.71,-0.19,0.0,9.94,46.81,-29.75,9.94,46.81,-29.75,0.89,0.15,-0.42,-0.08
0.0,49.0,49.56,163.44,49.0,49.56,163.44,0.4,-0.56,-0.71,-0.18,0.0,10.13,42.81,-30.0,10.13,42.81,-30.0,0.9,0.17,-0.39,-0.08
0.0,45.5,48.31,161.63,45.5,48.31,161.63,0.4,-0.56,-0.71,-0.16,0.0,8.81,39.06,-28.69,8.81,39.06,-28.69,0.91,0.18,-0.36,-0.07
0.0,41.63,48.19,159.63,41.63,48.19,159.63,0.4,-0.56,-0.71,-0.15,0.0,6.75,36.19,-26.0,6.75,36.19,-26.0,0.93,0.17,-0.33,-0.05
0.0,38.63,49.06,157.31,38.63,49.06,157.31,0.42,-0.55,-0.71,-0.15,0.0,5.81,34.5,-25.25,5.81,34.5,-25.25,0.93,0.17,-0.31,-0.05
0.0,37.69,49.94,156.38,37.69,49.94,156.38,0.43,-0.54,-0.71,-0.15,0.0,5.75,34.13,-25.81,5.75,34.13,-25.81,0.93,0.18,-0.31,-0.05
0.0,38.69,51.81,157.0,38.69,51.81,157.0,0.44,-0.53,-0.71,-0.15,0.0,5.31,33.25,-26.69,5.31,33.25,-26.69,0.93,0.19,-0.3,-0.04
0.0,40.13,54.44,157.56,40.13,54.44,157.56,0.45,-0.51,-0.72,-0.17,0.0,4.63,33.0,-28.25,4.63,33.0,-28.25,0.93,0.21,-0.3,-0.04
0.0,39.13,56.25,156.88,39.13,56.25,156.88,0.48,-0.48,-0.72,-0.17,0.0,4.0,33.44,-29.87,4.0,33.44,-29.87,0.93,0.22,-0.31,-0.03
0.0,38.19,60.94,154.56,38.19,60.94,154.56,0.52,-0.44,-0.71,-0.18,0.0,2.69,35.5,-31.94,2.69,35.5,-31.94,0.91,0.23,-0.33,-0.02
0.0,39.63,68.94,150.44,39.63,68.94,150.44,0.57,-0.4,-0.69,-0.21,0.0,2.31,39.38,-36.69,2.31,39.38,-36.69,0.89,0.26,-0.37,-0.02
0.0,41.56,76.31,138.31,41.56,76.31,138.31,0.61,-0.38,-0.66,-0.23,0.0,2.81,42.44,-42.81,2.81,42.44,-42.81,0.87,0.28,-0.4,-0.02
0.0,40.31,78.5,127.81,40.31,78.5,127.81,0.63,-0.36,-0.65,-0.23,0.0,1.06,43.63,-45.38,1.06,43.63,-45.38,0.87,0.29,-0.4,-0.01
0.0,42.25,82.25,118.12,42.25,82.25,118.12,0.65,-0.34,-0.64,-0.25,0.0,358.38,44.0,-46.0,358.38,44.0,-46.0,0.87,0.3,-0.4,0.01
0.0,42.94,83.19,6.75,42.94,83.19,6.75,0.66,-0.33,-0.62,-0.26,0.0,356.0,44.63,-48.5,356.0,44.63,-48.5,0.86,0.32,-0.4,0.03
0.0,41.0,82.75,85.69,41.0,82.75,85.69,0.66,-0.33,-0.63,-0.24,0.0,353.75,46.25,-51.94,353.75,46.25,-51.94,0.84,0.35,-0.41,0.05
0.0,40.13,82.44,92.62,40.13,82.44,92.62,0.66,-0.33,-0.63,-0.24,0.0,351.31,47.75,-53.38,351.31,47.75,-53.38,0.83,0.35,-0.42,0.06
0.0,39.5,82.31,90.62,39.5,82.31,90.62,0.66,-0.33,-0.63,-0.24,0.0,349.56,48.44,-52.75,349.56,48.44,-52.75,0.83,0.35,-0.42,0.08
0.0,37.25,80.44,108.87,37.25,80.44,108.87,0.65,-0.34,-0.64,-0.22,0.0,347.06,49.31,-50.19,347.06,49.31,-50.19,0.84,0.34,-0.41,0.1
0.0,34.25,75.69,126.5,34.25,75.69,126.5,0.62,-0.36,-0.66,-0.19,0.0,345.63,50.25,-47.75,345.63,50.25,-47.75,0.84,0.33,-0.42,0.11
0.0,31.37,71.62,133.5,31.37,71.62,133.5,0.6,-0.38,-0.68,-0.17,0.0,343.38,50.81,-43.56,343.38,50.81,-43.56,0.85,0.31,-0.41,0.13
0.0,29.81,67.62,138.0,29.81,67.62,138.0,0.58,-0.4,-0.69,-0.15,0.0,341.38,50.44,-38.94,341.38,50.44,-38.94,0.85,0.3,-0.4,0.14
0.0,29.19,64.12,143.5,29.19,64.12,143.5,0.55,-0.42,-0.71,-0.14,0.0,340.44,50.44,-36.63,340.44,50.44,-36.63,0.86,0.29,-0.4,0.15
0.0,29.12,62.75,146.0,29.12,62.75,146.0,0.53,-0.42,-0.72,-0.14,0.0,340.06,50.69,-34.31,340.06,50.69,-34.31,0.86,0.27,-0.4,0.15
0.0,31.37,61.25,151.5,31.37,61.25,151.5,0.51,-0.43,-0.73,-0.15,0.0,339.06,50.13,-29.44,339.06,50.13,-29.44,0.87,0.25,-0.4,0.16
0.0,35.69,57.31,157.69,35.69,57.31,157.69,0.46,-0.46,-0.74,-0.16,0.0,338.31,50.0,-25.19,338.31,50.0,-25.19,0.87,0.23,-0.39,0.17
0.0,40.44,54.63,162.38,40.44,54.63,162.38,0.44,-0.47,-0.75,-0.17,0.0,338.25,51.25,-23.25,338.25,51.25,-23.25,0.87,0.22,-0.41,0.17
0.0,43.5,54.31,166.31,43.5,54.31,166.31,0.43,-0.46,-0.76,-0.18,0.0,338.13,52.81,-21.25,338.13,52.81,-21.25,0.87,0.21,-0.42,0.17
0.0,47.06,54.44,169.63,47.06,54.44,169.63,0.42,-0.46,-0.76,-0.19,0.0,338.0,54.63,-19.06,338.0,54.63,-19.06,0.86,0.19,-0.43,0.17
0.0,50.88,54.44,171.75,50.88,54.44,171.75,0.42,-0.46,-0.76,-0.2,0.0,337.94,57.38,-17.75,337.94,57.38,-17.75,0.85,0.19,-0.46,0.17
0.0,54.56,55.44,174.06,54.56,55.44,174.06,0.42,-0.46,-0.75,-0.22,0.0,339.25,60.5,-18.19,339.25,60.5,-18.19,0.84,0.18,-0.48,0.15
0.0,57.75,57.69,176.25,57.75,57.69,176.25,0.43,-0.45,-0.75,-0.24,0.0,341.38,63.69,-20.69,341.38,63.69,-20.69,0.83,0.18,-0.51,0.14
0.0,59.63,61.5,-179.56,59.63,61.5,-179.56,0.45,-0.42,-0.74,-0.26,0.0,343.38,65.69,-22.0,343.38,65.69,-22.0,0.82,0.16,-0.54,0.11
0.0,64.94,65.44,-172.19,64.94,65.44,-172.19,0.46,-0.41,-0.73,-0.31,0.0,348.25,66.94,-14.38,348.25,66.94,-14.38,0.83,0.11,-0.55,0.08
0.0,71.0,67.87,-166.06,71.0,67.87,-166.06,0.46,-0.42,-0.71,-0.34,0.0,349.44,67.81,-12.38,349.44,67.81,-12.38,0.82,0.1,-0.56,0.07
0.0,75.37,69.06,-160.69,75.37,69.06,-160.69,0.46,-0.41,-0.7,-0.36,0.0,350.56,70.69,-12.88,350.56,70.69,-12.88,0.81,0.09,-0.58,0.07
0.0,77.94,71.06,-151.69,77.94,71.06,-151.69,0.47,-0.39,-0.69,-0.39,0.0,351.19,72.75,-9.19,351.19,72.75,-9.19,0.8,0.07,-0.59,0.06
0.0,83.31,72.94,-131.81,83.31,72.94,-131.81,0.47,-0.37,-0.67,-0.44,0.0,352.38,73.19,-3.63,352.38,73.19,-3.63,0.8,0.05,-0.6,0.05
0.0,90.75,72.81,-118.5,90.75,72.81,-118.5,0.45,-0.39,-0.65,-0.48,0.0,352.69,75.06,-2.25,352.69,75.06,-2.25,0.79,0.04,-0.61,0.05
0.0,100.31,71.69,-119.31,100.31,71.69,-119.31,0.4,-0.44,-0.62,-0.51,0.0,353.06,77.0,-1.25,353.06,77.0,-1.25,0.78,0.04,-0.62,0.05
0.0,109.06,68.44,-122.25,109.06,68.44,-122.25,0.36,-0.46,-0.63,-0.52,0.0,353.25,76.94,3.63,353.25,76.94,3.63,0.78,0.02,-0.62,0.04
0.0,111.12,67.19,-121.31,111.12,67.19,-121.31,0.36,-0.45,-0.63,-0.52,0.0,354.69,77.06,3.06,354.69,77.06,3.06,0.78,0.02,-0.62,0.03
0.0,108.31,67.31,-125.81,108.31,67.31,-125.81,0.36,-0.46,-0.64,-0.49,0.0,356.63,77.19,-0.94,356.63,77.19,-0.94,0.78,0.02,-0.62,0.02
0.0,108.0,64.31,-139.63,108.0,64.31,-139.63,0.33,-0.51,-0.65,-0.46,0.0,358.5,75.44,-4.06,358.5,75.44,-4.06,0.8,0.02,-0.61,0.01
0.0,110.37,61.0,-149.69,110.37,61.0,-149.69,0.3,-0.54,-0.65,-0.44,0.0,0.0,72.19,-4.38,0.0,72.19,-4.38,0.81,0.01,-0.58,-0.0
0.0,108.94,58.81,-154.63,108.94,58.81,-154.63,0.31,-0.55,-0.66,-0.41,0.0,0.25,69.12,-3.44,0.25,69.12,-3.44,0.83,0.01,-0.56,-0.0
0.0,102.0,58.5,-159.94,102.0,58.5,-159.94,0.32,-0.54,-0.67,-0.38,0.0,0.56,67.87,-3.13,0.56,67.87,-3.13,0.83,0.01,-0.56,-0.01
0.0,97.31,57.0,-165.0,97.31,57.0,-165.0,0.32,-0.56,-0.68,-0.36,0.0,1.69,66.12,-2.88,1.69,66.12,-2.88,0.84,0.0,-0.54,-0.01
0.0,95.87,54.31,-169.81,95.87,54.31,-169.81,0.31,-0.59,-0.67,-0.33,0.0,2.19,61.31,-1.31,2.19,61.31,-1.31,0.87,-0.0,-0.5,-0.02
0.0,91.87,52.5,-173.38,91.87,52.5,-173.38,0.31,-0.59,-0.68,-0.32,0.0,2.13,56.06,-2.69,2.13,56.06,-2.69,0.89,0.01,-0.46,-0.02
0.0,85.69,53.0,-176.5,85.69,53.0,-176.5,0.33,-0.58,-0.68,-0.3,0.0,2.31,52.88,-4.94,2.31,52.88,-4.94,0.9,0.02,-0.44,-0.02
0.0,82.5,52.69,-179.06,82.5,52.69,-179.06,0.33,-0.58,-0.68,-0.29,0.0,2.19,50.63,-5.69,2.19,50.63,-5.69,0.9,0.03,-0.43,-0.02
0.0,77.37,52.13,176.94,77.37,52.13,176.94,0.34,-0.59,-0.68,-0.28,0.0,148.06,48.63,-6.31,148.06,48.63,-6.31,0.25,-0.39,-0.15,-0.87
0.0,68.19,54.81,172.63,68.19,54.81,172.63,0.38,-0.56,-0.69,-0.26,0.0,146.69,49.0,-8.31,146.69,49.0,-8.31,0.26,-0.38,-0.17,-0.87
0.0,64.69,57.0,171.56,64.69,57.0,171.56,0.41,-0.53,-0.69,-0.26,0.0,146.13,50.88,-11.06,146.13,50.88,-11.06,0.26,-0.4,-0.2,-0.86
0.0,62.75,57.13,170.0,62.75,57.13,170.0,0.41,-0.54,-0.69,-0.25,0.0,145.69,53.5,-15.19,145.69,53.5,-15.19,0.26,-0.41,-0.22,-0.84
0.0,58.38,56.75,166.25,58.38,56.75,166.25,0.43,-0.53,-0.69,-0.23,0.0,144.06,54.38,-15.31,144.06,54.38,-15.31,0.28,-0.41,-0.23,-0.84
0.0,53.5,59.38,161.25,53.5,59.38,161.25,0.47,-0.52,-0.68,-0.23,0.0,142.69,57.75,-18.0,142.69,57.75,-18.0,0.27,-0.44,-0.26,-0.81
0.0,51.38,64.56,154.88,51.38,64.56,154.88,0.51,-0.5,-0.66,-0.24,0.0,142.19,62.81,-26.06,142.19,62.81,-26.06,0.27,-0.47,-0.29,-0.79
0.0,47.13,67.75,145.19,47.13,67.75,145.19,0.55,-0.48,-0.65,-0.23,0.0,140.31,64.94,-29.31,140.31,64.94,-29.31,0.29,-0.47,-0.31,-0.77
0.0,42.63,68.19,136.06,42.63,68.19,136.06,0.58,-0.47,-0.63,-0.22,0.0,137.5,66.94,-31.75,137.5,66.94,-31.75,0.3,-0.49,-0.33,-0.75
0.0,40.94,73.25,116.69,40.94,73.25,116.69,0.64,-0.42,-0.6,-0.23,0.0,134.94,70.56,-40.19,134.94,70.56,-40.19,0.3,-0.5,-0.36,-0.72
0.0,37.75,74.81,82.75,37.75,74.81,82.75,0.69,-0.39,-0.56,-0.22,0.0,132.75,73.37,-52.75,132.75,73.37,-52.75,0.31,-0.52,-0.4,-0.69
0.0,32.13,69.19,76.0,32.13,69.19,76.0,0.71,-0.41,-0.53,-0.2,0.0,130.63,74.37,-64.56,130.63,74.37,-64.56,0.31,-0.52,-0.43,-0.67
0.0,29.75,63.56,73.37,29.75,63.56,73.37,0.74,-0.43,-0.49,-0.19,0.0,129.38,73.87,-75.62,129.38,73.87,-75.62,0.31,-0.51,-0.46,-0.66
0.0,26.44,58.0,66.69,26.44,58.0,66.69,0.77,-0.42,-0.45,-0.17,0.0,128.63,72.56,-81.31,128.63,72.56,-81.31,0.31,-0.5,-0.48,-0.65
0.0,23.87,55.88,61.0,23.87,55.88,61.0,0.78,-0.41,-0.45,-0.16,0.0,128.31,70.75,-82.87,128.31,70.75,-82.87,0.31,-0.48,-0.5,-0.65
0.0,20.44,55.31,66.31,20.44,55.31,66.31,0.76,-0.43,-0.47,-0.12,0.0,127.94,68.44,-84.69,127.94,68.44,-84.69,0.32,-0.46,-0.52,-0.65
0.0,14.81,53.81,76.31,14.81,53.81,76.31,0.74,-0.45,-0.49,-0.09,0.0,127.31,66.37,-84.31,127.31,66.37,-84.31,0.32,-0.44,-0.53,-0.65
0.0,12.13,54.56,80.0,12.13,54.56,80.0,0.73,-0.44,-0.51,-0.08,3.0,126.37,64.56,-80.12,126.37,64.56,-80.12,0.33,-0.42,-0.54,-0.65
0.0,11.69,55.06,85.69,11.69,55.06,85.69,0.7,-0.46,-0.53,-0.07,3.0,124.81,62.88,-70.12,124.81,62.88,-70.12,0.35,-0.39,-0.52,-0.67
0.0,10.31,52.94,98.75,10.31,52.94,98.75,0.66,-0.5,-0.56,-0.06,3.0,122.37,60.56,-54.69,122.37,60.56,-54.69,0.39,-0.36,-0.48,-0.7
0.0,9.38,53.38,108.19,9.38,53.38,108.19,0.63,-0.48,-0.61,-0.06,3.0,121.31,57.69,-45.63,121.31,57.69,-45.63,0.41,-0.33,-0.45,-0.72
0.0,12.63,56.44,116.37,12.63,56.44,116.37,0.6,-0.48,-0.64,-0.07,3.0,121.0,55.25,-38.31,121.0,55.25,-38.31,0.42,-0.32,-0.42,-0.74
0.0,15.5,54.06,126.69,15.5,54.06,126.69,0.56,-0.51,-0.65,-0.08,3.0,121.0,52.56,-31.31,121.0,52.56,-31.31,0.43,-0.31,-0.38,-0.76
0.0,19.12,52.06,135.94,19.12,52.06,135.94,0.51,-0.53,-0.67,-0.09,3.0,121.06,49.81,-25.87,121.06,49.81,-25.87,0.44,-0.3,-0.35,-0.77
0.0,22.37,51.5,141.5,22.37,51.5,141.5,0.5,-0.52,-0.68,-0.1,3.0,121.44,48.5,-23.25,121.44,48.5,-23.25,0.44,-0.29,-0.33,-0.78
0.0,26.12,52.56,145.69,26.12,52.56,145.69,0.49,-0.51,-0.7,-0.11,3.0,121.5,48.69,-21.5,121.5,48.69,-21.5,0.44,-0.3,-0.32,-0.78
0.0,32.94,54.19,152.06,32.94,54.19,152.06,0.47,-0.5,-0.71,-0.14,3.0,120.62,48.56,-17.69,120.62,48.56,-17.69,0.45,-0.31,-0.3,-0.78
0.0,38.31,53.63,157.25,38.31,53.63,157.25,0.45,-0.51,-0.72,-0.16,3.0,120.06,49.38,-15.88,120.06,49.38,-15.88,0.45,-0.32,-0.3,-0.78
0.0,42.44,53.13,161.75,42.44,53.13,161.75,0.43,-0.5,-0.73,-0.17,3.0,119.56,53.19,-15.56,119.56,53.19,-15.56,0.44,-0.36,-0.31,-0.76
0.0,49.31,55.88,166.38,49.31,55.88,166.38,0.43,-0.49,-0.73,-0.2,3.0,120.31,57.81,-17.37,120.31,57.81,-17.37,0.43,-0.39,-0.33,-0.75
0.0,58.06,61.88,172.38,58.06,61.88,172.38,0.45,-0.47,-0.72,-0.25,3.0,122.31,61.44,-21.19,122.31,61.44,-21.19,0.4,-0.41,-0.35,-0.74
0.0,63.94,66.56,177.25,63.94,66.56,177.25,0.47,-0.45,-0.69,-0.31,3.0,126.44,65.81,-33.44,126.44,65.81,-33.44,0.35,-0.45,-0.39,-0.72
0.0,70.06,71.12,-175.44,70.06,71.12,-175.44,0.48,-0.45,-0.68,-0.34,3.0,132.25,69.12,-55.38,132.25,69.12,-55.38,0.3,-0.49,-0.42,-0.71
0.0,73.75,72.06,-167.19,73.75,72.06,-167.19,0.47,-0.43,-0.68,-0.36,3.0,137.69,69.31,-62.31,137.69,69.31,-62.31,0.27,-0.5,-0.41,-0.71
0.0,79.25,73.56,-148.06,79.25,73.56,-148.06,0.48,-0.39,-0.67,-0.41,3.0,140.81,69.06,-65.31,140.81,69.06,-65.31,0.24,-0.51,-0.42,-0.71
0.0,85.25,75.81,-121.5,85.25,75.81,-121.5,0.49,-0.38,-0.64,-0.46,3.0,145.56,66.81,-78.87,145.56,66.81,-78.87,0.2,-0.52,-0.45,-0.7
0.0,89.0,76.75,-111.12,89.0,76.75,-111.12,0.48,-0.4,-0.62,-0.48,3.0,152.0,63.06,-86.56,152.0,63.06,-86.56,0.17,-0.53,-0.46,-0.7
0.0,91.31,75.44,-110.31,91.31,75.44,-110.31,0.47,-0.38,-0.63,-0.49,3.0,157.94,60.25,-83.87,157.94,60.25,-83.87,0.12,-0.52,-0.45,-0.72
0.0,96.19,72.06,-99.75,96.19,72.06,-99.75,0.45,-0.37,-0.63,-0.52,3.0,166.13,55.13,-83.87,166.13,55.13,-83.87,0.09,-0.51,-0.46,-0.72
0.0,102.06,69.62,-102.31,102.06,69.62,-102.31,0.41,-0.39,-0.63,-0.53,3.0,173.25,51.0,-83.25,173.25,51.0,-83.25,0.04,-0.5,-0.46,-0.73
0.0,108.56,67.37,-116.69,108.56,67.37,-116.69,0.36,-0.44,-0.64,-0.52,3.0,176.06,49.5,-79.94,176.06,49.5,-79.94,0.03,-0.5,-0.45,-0.75
0.0,113.62,63.88,-129.25,113.62,63.88,-129.25,0.32,-0.48,-0.65,-0.49,3.0,178.0,48.19,-78.12,178.0,48.19,-78.12,0.01,-0.49,-0.44,-0.75
0.0,116.69,60.31,-138.44,116.69,60.31,-138.44,0.29,-0.51,-0.66,-0.47,3.0,178.81,47.75,-75.75,178.81,47.75,-75.75,0.01,-0.48,-0.43,-0.76
0.0,115.31,58.0,-145.44,115.31,58.0,-145.44,0.28,-0.53,-0.67,-0.44,3.0,179.31,47.5,-72.06,179.31,47.5,-72.06,0.0,-0.47,-0.42,-0.78
0.0,110.87,55.63,-152.69,110.87,55.63,-152.69,0.28,-0.54,-0.68,-0.4,3.0,180.31,46.44,-67.75,180.31,46.44,-67.75,-0.0,-0.46,-0.4,-0.79
0.0,108.94,52.56,-159.0,108.94,52.56,-159.0,0.26,-0.57,-0.69,-0.37,3.0,181.38,43.5,-59.56,181.38,43.5,-59.56,-0.01,-0.42,-0.37,-0.83
0.0,108.5,49.88,-162.88,108.5,49.88,-162.88,0.26,-0.59,-0.68,-0.35,3.0,179.31,39.5,-50.0,179.31,39.5,-50.0,0.0,-0.37,-0.34,-0.86
0.0,103.12,49.44,-166.38,103.12,49.44,-166.38,0.27,-0.58,-0.69,-0.33,3.0,178.31,35.25,-44.38,178.31,35.25,-44.38,0.01,-0.32,-0.33,-0.89
0.0,96.12,49.19,-169.94,96.12,49.19,-169.94,0.28,-0.58,-0.7,-0.31,3.0,176.0,30.87,-38.56,176.0,30.87,-38.56,0.03,-0.27,-0.3,-0.91
0.0,93.44,48.19,-172.56,93.44,48.19,-172.56,0.28,-0.59,-0.69,-0.3,3.0,168.94,25.81,-32.0,168.94,25.81,-32.0,0.09,-0.21,-0.28,-0.93
0.0,90.87,47.94,-174.75,90.87,47.94,-174.75,0.29,-0.59,-0.69,-0.29,3.0,164.88,20.69,-28.62,164.88,20.69,-28.62,0.13,-0.15,-0.26,-0.95
0.0,86.37,48.88,-176.31,86.37,48.88,-176.31,0.31,-0.58,-0.7,-0.28,3.0,161.88,17.31,-28.37,161.88,17.31,-28.37,0.15,-0.12,-0.26,-0.95
0.0,83.75,49.63,-177.31,83.75,49.63,-177.31,0.32,-0.58,-0.7,-0.28,3.0,159.44,15.19,-29.62,159.44,15.19,-29.62,0.17,-0.09,-0.27,-0.94
0.0,80.62,51.81,-178.94,80.62,51.81,-178.94,0.35,-0.56,-0.69,-0.29,3.0,157.5,14.0,-31.25,157.5,14.0,-31.25,0.19,-0.07,-0.28,-0.94
0.0,75.12,57.25,-179.25,75.12,57.25,-179.25,0.39,-0.51,-0.7,-0.29,3.0,156.63,13.75,-32.88,156.63,13.75,-32.88,0.2,-0.07,-0.3,-0.93
0.0,72.81,60.44,-178.0,72.81,60.44,-178.0,0.41,-0.5,-0.7,-0.3,3.0,155.19,14.5,-35.63,155.19,14.5,-35.63,0.2,-0.07,-0.32,-0.92
0.0,73.87,60.31,-178.81,73.87,60.31,-178.81,0.4,-0.51,-0.69,-0.3,3.0,154.0,16.12,-37.38,154.0,16.12,-37.38,0.21,-0.08,-0.35,-0.91
0.0,72.69,61.81,-179.31,72.69,61.81,-179.31,0.43,-0.49,-0.69,-0.31,3.0,155.0,18.56,-41.0,155.0,18.56,-41.0,0.19,-0.1,-0.37,-0.9
0.0,71.5,67.25,-173.75,71.5,67.25,-173.75,0.46,-0.44,-0.69,-0.33,3.0,154.5,18.69,-44.69,154.5,18.69,-44.69,0.2,-0.09,-0.39,-0.89
0.0,71.75,72.56,-170.63,71.75,72.56,-170.63,0.49,-0.43,-0.67,-0.36,3.0,151.81,18.19,-45.94,151.81,18.19,-45.94,0.23,-0.07,-0.41,-0.88
0.0,73.12,76.19,-159.38,73.12,76.19,-159.38,0.51,-0.41,-0.66,-0.37,3.0,149.5,18.0,-49.0,149.5,18.0,-49.0,0.24,-0.06,-0.44,-0.86
0.0,73.62,77.94,-151.19,73.62,77.94,-151.19,0.52,-0.39,-0.66,-0.39,3.0,149.88,18.19,-53.38,149.88,18.19,-53.38,0.23,-0.06,-0.47,-0.85
0.0,75.44,80.75,-118.87,75.44,80.75,-118.87,0.55,-0.34,-0.63,-0.43,3.0,149.94,18.25,-58.88,149.94,18.25,-58.88,0.22,-0.05,-0.52,-0.83
0.0,76.62,77.19,-66.5,76.62,77.19,-66.5,0.58,-0.3,-0.6,-0.46,3.0,149.5,16.81,-64.5,149.5,16.81,-64.5,0.23,-0.02,-0.55,-0.8
0.0,77.69,77.56,-62.06,77.69,77.56,-62.06,0.57,-0.33,-0.59,-0.46,3.0,146.19,14.81,-69.56,146.19,14.81,-69.56,0.25,0.03,-0.59,-0.77
0.0,80.12,79.25,-72.19,80.12,79.25,-72.19,0.55,-0.34,-0.59,-0.47,3.0,140.94,13.56,-74.19,140.94,13.56,-74.19,0.28,0.07,-0.61,-0.74
0.0,82.12,77.19,-64.5,82.12,77.19,-64.5,0.56,-0.32,-0.58,-0.49,3.0,134.0,13.69,-77.62,134.0,13.69,-77.62,0.31,0.11,-0.62,-0.71
0.0,84.31,72.06,-60.38,84.31,72.06,-60.38,0.56,-0.29,-0.58,-0.52,3.0,128.25,13.75,-79.75,128.25,13.75,-79.75,0.34,0.14,-0.63,-0.68
0.0,88.31,71.06,-63.94,88.31,71.06,-63.94,0.53,-0.31,-0.58,-0.53,3.0,124.56,13.63,-81.44,124.56,13.63,-81.44,0.35,0.16,-0.64,-0.67
0.0,96.56,69.25,-74.87,96.56,69.25,-74.87,0.47,-0.32,-0.6,-0.56,3.0,122.94,12.31,-83.12,122.94,12.31,-83.12,0.36,0.19,-0.64,-0.65
0.0,108.06,64.81,-84.5,108.06,64.81,-84.5,0.4,-0.35,-0.6,-0.59,3.0,119.62,11.69,-83.62,119.62,11.69,-83.62,0.38,0.22,-0.63,-0.64
0.0,120.75,64.19,-90.75,120.75,64.19,-90.75,0.33,-0.43,-0.57,-0.62,3.0,115.37,11.19,-83.5,115.37,11.19,-83.5,0.4,0.25,-0.62,-0.63
0.0,130.0,63.31,-94.62,130.0,63.31,-94.62,0.28,-0.44,-0.57,-0.63,3.0,113.37,10.31,-83.37,113.37,10.31,-83.37,0.41,0.26,-0.61,-0.62
0.0,135.81,55.75,-95.62,135.81,55.75,-95.62,0.25,-0.39,-0.61,-0.64,3.0,113.06,8.94,-83.44,113.06,8.94,-83.44,0.41,0.28,-0.6,-0.62
0.0,141.25,52.38,-96.25,141.25,52.38,-96.25,0.21,-0.41,-0.61,-0.65,3.0,112.25,7.81,-83.31,112.25,7.81,-83.31,0.42,0.3,-0.59,-0.62
0.0,151.81,50.44,-97.12,151.81,50.44,-97.12,0.15,-0.45,-0.58,-0.66,3.0,110.44,7.06,-83.06,110.44,7.06,-83.06,0.43,0.31,-0.58,-0.61
0.0,160.0,49.75,-95.81,160.0,49.75,-95.81,0.11,-0.47,-0.56,-0.68,3.0,108.75,6.5,-83.06,108.75,6.5,-83.06,0.44,0.33,-0.58,-0.6
0.0,164.13,47.44,-95.0,164.13,47.44,-95.0,0.09,-0.46,-0.56,-0.68,3.0,106.25,6.81,-83.44,106.25,6.81,-83.44,0.45,0.33,-0.58,-0.59
0.0,166.19,46.19,-93.56,166.19,46.19,-93.56,0.08,-0.46,-0.55,-0.69,3.0,103.75,7.81,-83.75,103.75,7.81,-83.75,0.46,0.34,-0.58,-0.58
0.0,165.19,49.13,-91.25,165.19,49.13,-91.25,0.1,-0.48,-0.53,-0.7,3.0,103.06,8.94,-84.25,103.06,8.94,-84.25,0.46,0.33,-0.59,-0.58
0.0,158.75,52.81,-91.44,158.75,52.81,-91.44,0.15,-0.47,-0.54,-0.68,3.0,104.56,10.06,-84.0,104.56,10.06,-84.0,0.45,0.3,-0.6,-0.59
0.0,147.19,53.94,-91.69,147.19,53.94,-91.69,0.22,-0.42,-0.57,-0.67,2.0,107.06,11.5,-83.81,107.06,11.5,-83.81,0.44,0.28,-0.61,-0.6
0.0,136.75,56.63,-89.75,136.75,56.63,-89.75,0.28,-0.4,-0.58,-0.65,2.0,110.31,14.0,-83.31,110.31,14.0,-83.31,0.42,0.21,-0.63,-0.62
0.0,129.0,59.75,-89.87,129.0,59.75,-89.87,0.32,-0.4,-0.59,-0.63,2.0,117.69,16.06,-82.37,117.69,16.06,-82.37,0.37,0.15,-0.64,-0.65
0.0,122.31,62.88,-92.06,122.31,62.88,-92.06,0.35,-0.4,-0.59,-0.61,2.0,124.31,17.87,-81.06,124.31,17.87,-81.06,0.35,0.11,-0.64,-0.67
0.0,114.25,65.81,-94.31,114.25,65.81,-94.31,0.39,-0.38,-0.61,-0.57,2.0,128.31,20.12,-78.87,128.31,20.12,-78.87,0.33,0.06,-0.64,-0.69
0.0,107.0,65.62,-94.69,107.0,65.62,-94.69,0.42,-0.34,-0.63,-0.55,2.0,129.5,23.87,-76.0,129.5,23.87,-76.0,0.33,0.01,-0.62,-0.71
0.0,103.87,65.06,-95.0,103.87,65.06,-95.0,0.43,-0.33,-0.64,-0.54,2.0,130.31,27.25,-75.75,130.31,27.25,-75.75,0.33,-0.03,-0.62,-0.71
0.0,102.81,66.31,-98.87,102.81,66.31,-98.87,0.43,-0.35,-0.64,-0.53,2.0,131.31,28.75,-77.31,131.31,28.75,-77.31,0.32,-0.06,-0.63,-0.7
0.0,101.94,67.31,-101.81,101.94,67.31,-101.81,0.43,-0.35,-0.64,-0.52,2.0,135.31,28.81,-79.12,135.31,28.81,-79.12,0.29,-0.08,-0.64,-0.71
0.0,98.56,68.69,-99.31,98.56,68.69,-99.31,0.46,-0.34,-0.64,-0.52,2.0,142.25,28.06,-80.31,142.25,28.06,-80.31,0.24,-0.11,-0.64,-0.72
0.0,94.62,69.75,-96.06,94.62,69.75,-96.06,0.48,-0.33,-0.64,-0.51,3.0,147.44,26.94,-80.44,147.44,26.94,-80.44,0.21,-0.12,-0.64,-0.73
0.0,93.06,71.12,-95.0,93.06,71.12,-95.0,0.48,-0.34,-0.63,-0.51,3.0,148.94,27.31,-80.12,148.94,27.31,-80.12,0.2,-0.14,-0.64,-0.73
0.0,92.56,72.37,-94.69,92.56,72.37,-94.69,0.48,-0.34,-0.63,-0.51,3.0,151.25,27.69,-80.56,151.25,27.69,-80.56,0.19,-0.15,-0.64,-0.73
0.0,92.06,72.37,-92.75,92.06,72.37,-92.75,0.49,-0.34,-0.63,-0.51,3.0,153.06,27.87,-81.19,153.06,27.87,-81.19,0.18,-0.17,-0.64,-0.73
0.0,92.12,71.37,-91.12,92.12,71.37,-91.12,0.48,-0.33,-0.63,-0.51,3.0,153.06,28.25,-81.5,153.06,28.25,-81.5,0.17,-0.17,-0.64,-0.73
0.0,95.37,70.75,-95.44,95.37,70.75,-95.44,0.46,-0.36,-0.63,-0.52,3.0,153.06,27.81,-81.5,153.06,27.81,-81.5,0.17,-0.17,-0.64,-0.73
0.0,101.25,69.12,-102.31,101.25,69.12,-102.31,0.42,-0.37,-0.64,-0.53,3.0,153.44,26.12,-81.06,153.44,26.12,-81.06,0.17,-0.15,-0.64,-0.73
0.0,109.75,65.06,-106.19,109.75,65.06,-106.19,0.36,-0.4,-0.64,-0.55,3.0,149.94,24.94,-79.25,149.94,24.94,-79.25,0.2,-0.12,-0.63,-0.74
0.0,119.31,63.0,-109.56,119.31,63.0,-109.56,0.31,-0.44,-0.62,-0.57,3.0,141.06,24.75,-76.25,141.06,24.75,-76.25,0.26,-0.06,-0.62,-0.74
0.0,127.19,60.25,-110.87,127.19,60.25,-110.87,0.28,-0.44,-0.63,-0.58,3.0,132.94,23.25,-74.0,132.94,23.25,-74.0,0.32,-0.01,-0.61,-0.73
0.0,359.25,57.5,-110.31,359.25,57.5,-110.31,0.64,0.4,-0.66,-0.0,3.0,125.87,21.75,-73.31,125.87,21.75,-73.31,0.36,0.05,-0.6,-0.71
0.0,2.81,55.19,-108.25,2.81,55.19,-108.25,0.64,0.4,-0.65,-0.03,3.0,119.12,21.12,-72.94,119.12,21.12,-72.94,0.4,0.09,-0.6,-0.69
0.0,8.19,54.38,-106.0,8.19,54.38,-106.0,0.65,0.38,-0.66,-0.06,3.0,113.69,20.87,-72.31,113.69,20.87,-72.31,0.44,0.12,-0.59,-0.67
0.0,12.63,53.75,-104.44,12.63,53.75,-104.44,0.65,0.37,-0.66,-0.07,3.0,110.75,20.31,-72.19,110.75,20.31,-72.19,0.46,0.15,-0.58,-0.66
0.0,12.56,53.44,-104.56,12.56,53.44,-104.56,0.65,0.38,-0.66,-0.07,3.0,105.87,19.5,-72.87,105.87,19.5,-72.87,0.48,0.17,-0.58,-0.64
0.0,10.69,53.25,-104.19,10.69,53.25,-104.19,0.65,0.38,-0.65,-0.06,3.0,102.5,20.12,-72.87,102.5,20.12,-72.87,0.51,0.18,-0.57,-0.62
0.0,9.81,54.25,-104.0,9.81,54.25,-104.0,0.65,0.37,-0.66,-0.06,3.0,100.06,21.37,-72.69,100.06,21.37,-72.69,0.51,0.18,-0.57,-0.61
0.0,9.19,55.06,-104.87,9.19,55.06,-104.87,0.65,0.37,-0.66,-0.05,3.0,102.75,21.87,-72.87,102.75,21.87,-72.87,0.49,0.16,-0.58,-0.63
0.0,6.13,56.44,-106.19,6.13,56.44,-106.19,0.65,0.38,-0.66,-0.03,3.0,106.5,22.31,-72.5,106.5,22.31,-72.5,0.47,0.13,-0.58,-0.64
0.0,1.25,57.25,-107.56,1.25,57.25,-107.56,0.65,0.4,-0.65,0.0,3.0,107.69,23.31,-71.44,107.69,23.31,-71.44,0.47,0.12,-0.58,-0.65
0.0,357.06,58.69,-109.37,357.06,58.69,-109.37,0.64,0.4,-0.66,0.03,3.0,107.87,24.37,-70.31,107.87,24.37,-70.31,0.48,0.1,-0.58,-0.66
0.0,351.63,60.81,-112.75,351.63,60.81,-112.75,0.63,0.4,-0.66,0.06,3.0,108.37,26.62,-68.81,108.37,26.62,-68.81,0.47,0.06,-0.58,-0.66
0.0,344.25,63.63,-114.25,344.25,63.63,-114.25,0.63,0.42,-0.64,0.11,3.0,110.94,29.56,-67.69,110.94,29.56,-67.69,0.45,0.01,-0.58,-0.68
0.0,335.81,65.25,-111.81,335.81,65.25,-111.81,0.64,0.44,-0.61,0.15,3.0,116.19,31.62,-68.0,116.19,31.62,-68.0,0.42,-0.03,-0.59,-0.69
0.0,328.94,67.44,-107.69,328.94,67.44,-107.69,0.64,0.45,-0.59,0.19,3.0,121.44,33.0,-69.44,121.44,33.0,-69.44,0.38,-0.07,-0.59,-0.7
0.0,324.94,69.69,-108.06,324.94,69.69,-108.06,0.64,0.44,-0.6,0.21,3.0,125.56,34.25,-71.12,125.56,34.25,-71.12,0.35,-0.1,-0.6,-0.71
0.0,321.06,72.56,-104.37,321.06,72.56,-104.37,0.64,0.44,-0.58,0.23,3.0,131.88,34.5,-74.19,131.88,34.5,-74.19,0.3,-0.14,-0.61,-0.72
3.0,318.31,72.94,-100.5,318.31,72.94,-100.5,0.64,0.44,-0.58,0.25,3.0,138.06,34.94,-76.56,138.06,34.94,-76.56,0.27,-0.17,-0.61,-0.72
3.0,316.75,74.19,-99.25,316.75,74.19,-99.25,0.64,0.43,-0.58,0.26,3.0,141.06,35.81,-77.31,141.06,35.81,-77.31,0.25,-0.19,-0.61,-0.72
3.0,315.94,75.06,-97.69,315.94,75.06,-97.69,0.64,0.43,-0.58,0.26,3.0,143.06,35.94,-77.5,143.06,35.94,-77.5,0.24,-0.2,-0.61,-0.73
3.0,314.75,75.87,-97.19,314.75,75.87,-97.19,0.64,0.43,-0.58,0.27,3.0,145.75,35.56,-78.94,145.75,35.56,-78.94,0.21,-0.22,-0.62,-0.73
3.0,313.31,76.25,-95.37,313.31,76.25,-95.37,0.64,0.43,-0.57,0.28,3.0,151.13,34.19,-82.12,151.13,34.19,-82.12,0.17,-0.23,-0.63,-0.72
3.0,311.63,77.31,-99.62,311.63,77.31,-99.62,0.63,0.43,-0.58,0.28,3.0,153.63,34.0,-84.12,153.63,34.0,-84.12,0.18,-0.24,-0.63,-0.72
3.0,311.88,77.0,-115.31,311.88,77.0,-115.31,0.61,0.43,-0.61,0.27,3.0,143.56,38.13,-80.06,143.56,38.13,-80.06,0.27,-0.22,-0.61,-0.72
3.0,313.56,74.81,-128.75,313.56,74.81,-128.75,0.59,0.44,-0.63,0.24,3.0,128.63,41.94,-69.87,128.63,41.94,-69.87,0.38,-0.18,-0.56,-0.71
3.0,319.44,70.75,-137.38,319.44,70.75,-137.38,0.57,0.43,-0.67,0.2,3.0,116.56,46.25,-59.19,116.56,46.25,-59.19,0.44,-0.19,-0.53,-0.7
3.0,327.5,67.44,-140.75,327.5,67.44,-140.75,0.57,0.41,-0.7,0.15,3.0,115.25,47.69,-54.5,115.25,47.69,-54.5,0.44,-0.2,-0.51,-0.71
3.0,334.25,65.12,-137.63,334.25,65.12,-137.63,0.58,0.41,-0.7,0.12,3.0,122.25,47.13,-59.31,122.25,47.13,-59.31,0.34,-0.24,-0.55,-0.73
3.0,338.88,63.56,-129.0,338.88,63.56,-129.0,0.6,0.42,-0.67,0.1,3.0,151.38,41.0,-78.0,151.38,41.0,-78.0,0.11,-0.33,-0.58,-0.74
3.0,345.31,62.06,-116.62,345.31,62.06,-116.62,0.63,0.42,-0.65,0.06,3.0,178.38,34.19,-83.25,178.38,34.19,-83.25,-0.0,-0.38,-0.55,-0.74
3.0,355.06,59.5,-110.31,355.06,59.5,-110.31,0.64,0.39,-0.66,0.01,3.0,173.88,35.69,-83.12,173.88,35.69,-83.12,0.08,-0.36,-0.57,-0.73
3.0,1.06,58.56,-107.19,1.06,58.56,-107.19,0.65,0.38,-0.65,-0.01,2.0,158.5,41.38,-85.06,158.5,41.38,-85.06,0.14,-0.35,-0.6,-0.71
3.0,2.56,56.13,-101.81,2.56,56.13,-101.81,0.67,0.4,-0.62,-0.02,2.0,162.56,40.31,-90.75,162.56,40.31,-90.75,0.08,-0.38,-0.6,-0.7
3.0,5.0,53.88,-97.75,5.0,53.88,-97.75,0.68,0.4,-0.62,-0.04,2.0,170.88,37.19,-91.0,170.88,37.19,-91.0,0.05,-0.38,-0.6,-0.7
3.0,9.94,54.56,-100.5,9.94,54.56,-100.5,0.66,0.36,-0.66,-0.06,2.0,171.69,36.0,-87.75,171.69,36.0,-87.75,0.05,-0.36,-0.59,-0.72
3.0,11.0,56.13,-109.87,11.0,56.13,-109.87,0.63,0.35,-0.7,-0.05,2.0,171.56,34.13,-82.69,171.56,34.13,-82.69,0.06,-0.32,-0.57,-0.75
3.0,6.31,56.38,-115.31,6.31,56.38,-115.31,0.61,0.38,-0.69,-0.02,2.0,168.94,32.63,-76.94,168.94,32.63,-76.94,0.09,-0.29,-0.56,-0.77
3.0,1.63,56.88,-118.5,1.63,56.88,-118.5,0.6,0.38,-0.7,-0.0,2.0,164.25,33.44,-72.75,164.25,33.44,-72.75,0.11,-0.27,-0.54,-0.79
3.0,359.25,58.25,-122.69,359.25,58.25,-122.69,0.59,0.37,-0.71,0.01,2.0,161.31,32.94,-70.12,161.31,32.94,-70.12,0.14,-0.24,-0.54,-0.79
3.0,356.56,59.06,-126.5,356.56,59.06,-126.5,0.59,0.37,-0.72,0.02,2.0,154.06,32.19,-67.31,154.06,32.19,-67.31,0.21,-0.19,-0.54,-0.79
3.0,351.75,60.94,-128.38,351.75,60.94,-128.38,0.59,0.38,-0.71,0.05,2.0,144.94,31.81,-65.75,144.94,31.81,-65.75,0.26,-0.15,-0.55,-0.78
3.0,344.19,63.06,-124.37,344.19,63.06,-124.37,0.61,0.41,-0.67,0.1,2.0,139.25,32.44,-66.25,139.25,32.44,-66.25,0.28,-0.14,-0.56,-0.77
3.0,337.0,65.5,-114.06,337.0,65.5,-114.06,0.64,0.43,-0.62,0.14,2.0,134.88,34.81,-67.62,134.88,34.81,-67.62,0.32,-0.15,-0.57,-0.74
3.0,332.75,66.31,-101.75,332.75,66.31,-101.75,0.66,0.44,-0.58,0.17,2.0,129.06,38.13,-66.75,129.06,38.13,-66.75,0.37,-0.15,-0.56,-0.72
3.0,330.06,67.94,-100.06,330.06,67.94,-100.06,0.66,0.44,-0.59,0.18,2.0,121.0,41.94,-63.06,121.0,41.94,-63.06,0.42,-0.16,-0.55,-0.71
3.0,327.13,69.19,-104.69,327.13,69.19,-104.69,0.64,0.44,-0.59,0.2,2.0,115.87,44.31,-59.19,115.87,44.31,-59.19,0.44,-0.16,-0.54,-0.7
3.0,320.19,72.06,-116.0,320.19,72.06,-116.0,0.6,0.45,-0.62,0.23,2.0,113.0,45.81,-54.5,113.0,45.81,-54.5,0.47,-0.17,-0.51,-0.7
3.0,314.94,71.81,-144.0,314.94,71.81,-144.0,0.55,0.42,-0.68,0.22,2.0,108.87,47.56,-49.44,108.87,47.56,-49.44,0.5,-0.18,-0.49,-0.69
3.0,322.56,67.62,-155.5,322.56,67.62,-155.5,0.54,0.38,-0.74,0.16,2.0,109.0,49.38,-46.88,109.0,49.38,-46.88,0.49,-0.2,-0.49,-0.69
3.0,330.88,64.69,-154.0,330.88,64.69,-154.0,0.54,0.37,-0.74,0.14,2.0,113.06,51.06,-48.81,113.06,51.06,-48.81,0.45,-0.24,-0.5,-0.7
3.0,330.5,65.12,-147.06,330.5,65.12,-147.06,0.56,0.41,-0.7,0.15,2.0,121.12,51.31,-57.19,121.12,51.31,-57.19,0.4,-0.26,-0.51,-0.71
3.0,330.44,66.81,-134.0,330.44,66.81,-134.0,0.59,0.42,-0.67,0.15,2.0,130.38,50.56,-65.19,130.38,50.56,-65.19,0.33,-0.29,-0.53,-0.72
3.0,334.75,67.62,-124.62,334.75,67.62,-124.62,0.62,0.4,-0.67,0.13,2.0,139.88,49.38,-73.0,139.88,49.38,-73.0,0.26,-0.32,-0.55,-0.72
3.0,339.88,67.56,-118.87,339.88,67.56,-118.87,0.64,0.38,-0.66,0.11,2.0,149.5,46.38,-79.81,149.5,46.38,-79.81,0.2,-0.35,-0.56,-0.72
3.0,343.88,66.12,-109.56,343.88,66.12,-109.56,0.66,0.39,-0.64,0.09,2.0,156.19,43.38,-83.69,156.19,43.38,-83.69,0.15,-0.36,-0.58,-0.72
3.0,347.25,64.56,-106.0,347.25,64.56,-106.0,0.66,0.38,-0.65,0.07,2.0,157.69,43.06,-85.12,157.69,43.06,-85.12,0.14,-0.36,-0.58,-0.71
3.0,350.31,63.88,-110.69,350.31,63.88,-110.69,0.64,0.37,-0.67,0.05,2.0,157.25,44.06,-87.94,157.25,44.06,-87.94,0.14,-0.38,-0.59,-0.7
3.0,352.63,62.75,-115.06,352.63,62.75,-115.06,0.63,0.37,-0.68,0.04,2.0,157.38,44.19,-91.0,157.38,44.19,-91.0,0.14,-0.39,-0.6,-0.69
3.0,355.13,61.25,-121.31,355.13,61.25,-121.31,0.6,0.36,-0.71,0.02,2.0,154.94,45.5,-88.69,154.94,45.5,-88.69,0.15,-0.38,-0.59,-0.7
3.0,357.81,59.56,-128.63,357.81,59.56,-128.63,0.58,0.35,-0.74,0.01,2.0,150.69,46.56,-84.06,150.69,46.56,-84.06,0.18,-0.36,-0.58,-0.71
3.0,355.94,58.75,-132.69,355.94,58.75,-132.69,0.56,0.37,-0.74,0.03,2.0,151.75,43.88,-81.31,151.75,43.88,-81.31,0.18,-0.34,-0.58,-0.72
3.0,349.0,58.81,-136.31,349.0,58.81,-136.31,0.55,0.4,-0.73,0.06,2.0,153.63,40.31,-77.81,153.63,40.31,-77.81,0.17,-0.3,-0.57,-0.74
3.0,345.13,59.25,-139.69,345.13,59.25,-139.69,0.55,0.39,-0.73,0.08,2.0,152.0,37.63,-74.56,152.0,37.63,-74.56,0.19,-0.26,-0.57,-0.75
3.0,338.56,61.94,-139.88,338.56,61.94,-139.88,0.56,0.42,-0.7,0.13,2.0,147.25,36.25,-72.25,147.25,36.25,-72.25,0.22,-0.22,-0.57,-0.76
3.0,329.13,65.62,-126.81,329.13,65.62,-126.81,0.61,0.46,-0.62,0.18,2.0,140.13,35.06,-69.75,140.13,35.06,-69.75,0.27,-0.17,-0.57,-0.75
3.0,323.13,69.5,-112.94,323.13,69.5,-112.94,0.63,0.46,-0.59,0.21,2.0,131.63,35.06,-67.87,131.63,35.06,-67.87,0.33,-0.13,-0.57,-0.74
3.0,322.31,70.56,-106.87,322.31,70.56,-106.87,0.64,0.45,-0.58,0.22,2.0,127.0,35.31,-67.31,127.0,35.31,-67.31,0.36,-0.11,-0.57,-0.73
3.0,320.38,70.81,-95.81,320.38,70.81,-95.81,0.66,0.45,-0.55,0.24,2.0,123.69,36.25,-67.0,123.69,36.25,-67.0,0.38,-0.11,-0.58,-0.71
3.0,316.94,71.62,-90.94,316.94,71.62,-90.94,0.65,0.46,-0.55,0.26,2.0,120.75,37.31,-65.81,120.75,37.31,-65.81,0.41,-0.1,-0.57,-0.71
3.0,315.0,72.69,-100.69,315.0,72.69,-100.69,0.63,0.46,-0.56,0.26,2.0,116.5,39.0,-62.19,116.5,39.0,-62.19,0.43,-0.11,-0.55,-0.7
3.0,313.0,72.75,-106.06,313.0,72.75,-106.06,0.62,0.48,-0.56,0.27,2.0,115.06,40.13,-61.0,115.06,40.13,-61.0,0.44,-0.12,-0.55,-0.7
3.0,312.31,72.31,-110.94,312.31,72.31,-110.94,0.61,0.48,-0.58,0.27,2.0,118.06,43.13,-63.38,118.06,43.13,-63.38,0.42,-0.15,-0.56,-0.7
3.0,314.44,73.0,-116.06,314.44,73.0,-116.06,0.61,0.46,-0.59,0.25,2.0,122.0,45.06,-66.56,122.0,45.06,-66.56,0.39,-0.19,-0.57,-0.7
3.0,315.94,72.37,-114.81,315.94,72.37,-114.81,0.61,0.47,-0.59,0.25,2.0,124.44,45.94,-68.56,124.44,45.94,-68.56,0.36,-0.22,-0.58,-0.7
3.0,316.63,71.37,-114.19,316.63,71.37,-114.19,0.61,0.47,-0.59,0.24,2.0,135.5,44.06,-76.44,135.5,44.06,-76.44,0.29,-0.25,-0.6,-0.71
3.0,318.56,71.25,-113.37,318.56,71.25,-113.37,0.62,0.46,-0.59,0.23,2.0,143.69,40.75,-80.87,143.69,40.75,-80.87,0.2,-0.26,-0.62,-0.71
3.0,320.69,70.94,-107.62,320.69,70.94,-107.62,0.64,0.45,-0.58,0.22,2.0,161.06,32.38,-85.25,161.06,32.38,-85.25,0.12,-0.27,-0.63,-0.72
3.0,323.0,70.12,-97.0,323.0,70.12,-97.0,0.67,0.45,-0.56,0.22,2.0,168.44,28.12,-85.56,168.44,28.12,-85.56,0.07,-0.26,-0.63,-0.73
3.0,325.31,68.12,-87.87,325.31,68.12,-87.87,0.68,0.44,-0.54,0.21,2.0,169.31,27.62,-85.81,169.31,27.62,-85.81,0.07,-0.26,-0.63,-0.72
3.0,327.19,67.19,-86.75,327.19,67.19,-86.75,0.69,0.44,-0.54,0.2,2.0,169.5,27.81,-87.56,169.5,27.81,-87.56,0.07,-0.27,-0.64,-0.71
3.0,330.31,65.56,-87.44,330.31,65.56,-87.44,0.69,0.44,-0.54,0.17,2.0,168.13,29.06,-89.0,168.13,29.06,-89.0,0.08,-0.28,-0.65,-0.71
3.0,333.81,65.19,-87.19,333.81,65.19,-87.19,0.7,0.42,-0.56,0.16,2.0,164.56,30.62,-89.62,164.56,30.62,-89.62,0.1,-0.27,-0.65,-0.7
3.0,336.75,65.69,-89.87,336.75,65.69,-89.87,0.69,0.41,-0.58,0.13,2.0,162.19,31.0,-89.19,162.19,31.0,-89.19,0.11,-0.27,-0.65,-0.7
3.0,342.13,66.31,-95.62,342.13,66.31,-95.62,0.68,0.37,-0.63,0.1,2.0,161.5,30.69,-88.31,161.5,30.69,-88.31,0.12,-0.25,-0.65,-0.71
3.0,342.44,68.56,-107.94,342.44,68.56,-107.94,0.65,0.36,-0.66,0.1,2.0,162.25,29.44,-87.62,162.25,29.44,-87.62,0.1,-0.24,-0.65,-0.71
3.0,342.44,68.75,-116.37,342.44,68.75,-116.37,0.63,0.36,-0.68,0.1,2.0,165.88,26.87,-87.12,165.88,26.87,-87.12,0.08,-0.23,-0.65,-0.72
3.0,339.5,68.31,-122.62,339.5,68.31,-122.62,0.62,0.38,-0.67,0.12,2.0,166.88,24.12,-85.31,166.88,24.12,-85.31,0.1,-0.19,-0.65,-0.73
3.0,332.06,68.69,-127.25,332.06,68.69,-127.25,0.6,0.41,-0.67,0.16,3.0,157.25,24.5,-83.44,157.25,24.5,-83.44,0.17,-0.14,-0.65,-0.73
3.0,324.63,70.44,-134.38,324.63,70.44,-134.38,0.59,0.42,-0.66,0.2,3.0,147.19,25.0,-81.94,147.19,25.0,-81.94,0.23,-0.09,-0.65,-0.72
3.0,318.38,72.75,-133.19,318.38,72.75,-133.19,0.59,0.44,-0.63,0.24,3.0,141.44,25.37,-79.94,141.44,25.37,-79.94,0.26,-0.07,-0.64,-0.72
3.0,313.13,74.81,-119.37,313.13,74.81,-119.37,0.61,0.44,-0.6,0.27,3.0,138.38,26.06,-78.31,138.38,26.06,-78.31,0.28,-0.06,-0.63,-0.72
3.0,308.06,78.75,-120.69,308.06,78.75,-120.69,0.6,0.43,-0.61,0.3,3.0,134.94,27.37,-77.31,134.94,27.37,-77.31,0.3,-0.06,-0.63,-0.71
3.0,303.94,80.56,-136.63,303.94,80.56,-136.63,0.58,0.43,-0.62,0.32,3.0,132.19,29.37,-76.44,132.19,29.37,-76.44,0.32,-0.08,-0.62,-0.71
3.0,302.38,78.94,-147.94,302.38,78.94,-147.94,0.56,0.43,-0.64,0.31,3.0,133.13,31.25,-75.25,133.13,31.25,-75.25,0.3,-0.1,-0.62,-0.72
3.0,304.0,74.94,-165.06,304.0,74.94,-165.06,0.53,0.41,-0.68,0.28,3.0,136.19,32.0,-75.75,136.19,32.0,-75.75,0.29,-0.13,-0.62,-0.72
3.0,307.44,71.87,-169.0,307.44,71.87,-169.0,0.53,0.4,-0.7,0.26,3.0,136.38,33.94,-75.37,136.38,33.94,-75.37,0.29,-0.15,-0.61,-0.72
3.0,308.06,71.31,-167.94,308.06,71.31,-167.94,0.53,0.41,-0.7,0.26,3.0,140.19,34.81,-76.0,140.19,34.81,-76.0,0.25,-0.18,-0.61,-0.73
3.0,309.44,70.25,-162.5,309.44,70.25,-162.5,0.53,0.43,-0.69,0.24,3.0,146.81,33.19,-78.19,146.81,33.19,-78.19,0.21,-0.19,-0.62,-0.73
3.0,318.0,68.56,-152.75,318.0,68.56,-152.75,0.55,0.41,-0.7,0.2,3.0,151.13,31.69,-79.62,151.13,31.69,-79.62,0.18,-0.2,-0.62,-0.74
3.0,326.06,68.69,-143.75,326.06,68.69,-143.75,0.58,0.4,-0.69,0.17,3.0,157.38,29.62,-81.0,157.38,29.62,-81.0,0.13,-0.21,-0.62,-0.74
3.0,327.94,69.81,-137.38,327.94,69.81,-137.38,0.59,0.4,-0.68,0.17,3.0,164.69,26.56,-81.69,164.69,26.56,-81.69,0.09,-0.22,-0.62,-0.75
3.0,326.81,70.56,-132.81,326.81,70.56,-132.81,0.6,0.4,-0.67,0.18,3.0,169.31,23.25,-82.0,169.31,23.25,-82.0,0.05,-0.2,-0.63,-0.75
3.0,327.31,72.25,-126.06,327.31,72.25,-126.06,0.62,0.39,-0.65,0.18,3.0,176.94,18.12,-82.62,176.94,18.12,-82.62,0.0,-0.19,-0.63,-0.75
3.0,327.44,74.12,-119.44,327.44,74.12,-119.44,0.63,0.37,-0.66,0.18,3.0,182.88,15.19,-82.44,182.88,15.19,-82.44,-0.02,-0.19,-0.63,-0.75
3.0,328.06,75.75,-126.62,328.06,75.75,-126.62,0.62,0.34,-0.68,0.17,3.0,182.94,15.0,-83.12,182.94,15.0,-83.12,-0.02,-0.19,-0.64,-0.74
3.0,329.31,76.5,-141.31,329.31,76.5,-141.31,0.61,0.3,-0.71,0.17,3.0,180.75,15.0,-84.12,180.75,15.0,-84.12,-0.0,-0.17,-0.65,-0.74
3.0,327.0,76.62,-158.06,327.0,76.62,-158.06,0.59,0.28,-0.73,0.18,3.0,178.44,14.69,-83.69,178.44,14.69,-83.69,0.02,-0.16,-0.65,-0.74
3.0,323.56,74.87,-171.75,323.56,74.87,-171.75,0.57,0.27,-0.75,0.19,3.0,175.38,14.88,-83.19,175.38,14.88,-83.19,0.04,-0.14,-0.65,-0.75
3.0,321.56,72.44,179.5,321.56,72.44,179.5,0.55,0.26,-0.77,0.2,3.0,172.69,15.19,-82.5,172.69,15.19,-82.5,0.05,-0.13,-0.65,-0.75
3.0,318.0,69.0,169.56,318.0,69.0,169.56,0.52,0.24,-0.79,0.21,3.0,170.81,14.63,-82.19,170.81,14.63,-82.19,0.07,-0.11,-0.65,-0.75
3.0,312.06,65.75,162.5,312.06,65.75,162.5,0.5,0.23,-0.8,0.24,3.0,165.06,14.75,-82.25,165.06,14.75,-82.25,0.11,-0.08,-0.66,-0.74
3.0,303.88,64.81,154.31,303.88,64.81,154.31,0.49,0.24,-0.79,0.27,3.0,158.06,16.31,-82.31,158.06,16.31,-82.31,0.15,-0.06,-0.66,-0.74
3.0,296.38,64.81,144.94,296.38,64.81,144.94,0.49,0.24,-0.78,0.32,3.0,155.63,17.0,-81.19,155.63,17.0,-81.19,0.16,-0.06,-0.65,-0.74
3.0,289.0,67.25,133.0,289.0,67.25,133.0,0.5,0.26,-0.74,0.37,3.0,154.38,16.31,-81.19,154.38,16.31,-81.19,0.17,-0.04,-0.65,-0.74
3.0,282.69,70.94,119.0,282.69,70.94,119.0,0.51,0.29,-0.7,0.42,3.0,146.19,17.62,-81.12,146.19,17.62,-81.12,0.24,-0.0,-0.65,-0.72
3.0,278.75,70.81,111.87,278.75,70.81,111.87,0.5,0.28,-0.69,0.43,3.0,140.69,18.37,-80.31,140.69,18.37,-80.31,0.26,0.01,-0.65,-0.72
3.0,276.25,67.06,107.87,276.25,67.06,107.87,0.49,0.24,-0.71,0.45,3.0,139.13,17.94,-79.94,139.13,17.94,-79.94,0.27,0.02,-0.65,-0.72
3.0,273.94,65.87,100.94,273.94,65.87,100.94,0.51,0.26,-0.68,0.47,3.0,134.25,18.06,-79.75,134.25,18.06,-79.75,0.32,0.06,-0.64,-0.7
3.0,276.13,75.44,94.25,276.13,75.44,94.25,0.52,0.37,-0.62,0.46,3.0,125.19,19.62,-78.62,125.19,19.62,-78.62,0.35,0.08,-0.63,-0.68
3.0,279.81,76.12,153.06,279.81,76.12,153.06,0.45,0.45,-0.68,0.35,3.0,119.31,20.31,-77.37,119.31,20.31,-77.37,0.39,0.1,-0.62,-0.67
3.0,301.19,54.94,-179.13,301.19,54.94,-179.13,0.39,0.41,-0.81,0.16,2.0,116.0,20.69,-75.94,116.0,20.69,-75.94,0.41,0.12,-0.61,-0.66
3.0,349.06,43.56,-162.94,349.06,43.56,-162.94,0.4,0.34,-0.85,-0.0,2.0,114.81,21.5,-74.62,114.81,21.5,-74.62,0.42,0.11,-0.6,-0.67
2.0,4.94,44.94,-153.38,4.94,44.94,-153.38,0.44,0.34,-0.83,-0.0,2.0,116.56,22.94,-73.37,116.56,22.94,-73.37,0.42,0.08,-0.6,-0.68
2.0,351.69,51.06,-150.25,351.69,51.06,-150.25,0.49,0.41,-0.77,0.04,2.0,120.19,24.19,-73.37,120.19,24.19,-73.37,0.4,0.05,-0.61,-0.69
2.0,352.5,53.19,-141.31,352.5,53.19,-141.31,0.52,0.4,-0.76,0.02,2.0,127.56,24.12,-76.5,127.56,24.12,-76.5,0.34,0.02,-0.63,-0.7
2.0,2.31,53.88,-140.19,2.31,53.88,-140.19,0.52,0.32,-0.79,-0.02,2.0,137.94,21.06,-80.44,137.94,21.06,-80.44,0.23,-0.01,-0.66,-0.71
2.0,1.5,56.56,-142.38,1.5,56.56,-142.38,0.54,0.31,-0.79,0.01,2.0,157.31,14.81,-85.56,157.31,14.81,-85.56,0.14,-0.04,-0.68,-0.72
2.0,346.06,61.81,-147.19,346.06,61.81,-147.19,0.55,0.34,-0.76,0.09,2.0,166.5,12.44,-86.75,166.5,12.44,-86.75,0.09,-0.07,-0.68,-0.72
2.0,334.63,66.31,-152.63,334.63,66.31,-152.63,0.55,0.32,-0.76,0.14,2.0,167.88,12.81,-88.06,167.88,12.81,-88.06,0.08,-0.09,-0.69,-0.71
2.0,326.25,67.62,-169.81,326.25,67.62,-169.81,0.53,0.28,-0.79,0.17,2.0,161.38,18.31,-91.0,161.38,18.31,-91.0,0.11,-0.11,-0.7,-0.69
2.0,314.38,64.25,165.44,314.38,64.25,165.44,0.48,0.21,-0.82,0.23,2.0,159.0,20.25,-91.31,159.0,20.25,-91.31,0.13,-0.13,-0.7,-0.69
2.0,297.44,58.38,149.56,297.44,58.38,149.56,0.44,0.23,-0.82,0.29,2.0,153.75,25.25,-90.0,153.75,25.25,-90.0,0.18,-0.16,-0.68,-0.69
2.0,275.75,55.13,138.13,275.75,55.13,138.13,0.37,0.26,-0.8,0.39,2.0,147.94,30.87,-87.44,147.94,30.87,-87.44,0.21,-0.18,-0.66,-0.69
2.0,252.88,52.25,126.31,252.88,52.25,126.31,0.32,0.33,-0.75,0.48,2.0,146.38,31.06,-85.25,146.38,31.06,-85.25,0.22,-0.16,-0.66,-0.7
2.0,238.5,53.56,118.5,238.5,53.56,118.5,0.28,0.38,-0.69,0.54,2.0,141.5,32.25,-83.31,141.5,32.25,-83.31,0.26,-0.15,-0.65,-0.7
2.0,230.0,52.13,112.0,230.0,52.13,112.0,0.25,0.38,-0.69,0.57,2.0,138.0,32.69,-82.12,138.0,32.69,-82.12,0.27,-0.13,-0.65,-0.7
2.0,223.44,48.13,112.25,223.44,48.13,112.25,0.21,0.38,-0.7,0.57,2.0,139.88,29.62,-82.12,139.88,29.62,-82.12,0.25,-0.1,-0.65,-0.7
2.0,216.94,46.5,113.25,216.94,46.5,113.25,0.18,0.41,-0.68,0.58,2.0,140.5,27.0,-82.0,140.5,27.0,-82.0,0.26,-0.08,-0.66,-0.71
2.0,210.38,46.31,112.0,210.38,46.31,112.0,0.15,0.45,-0.65,0.59,2.0,139.19,25.0,-80.62,139.19,25.0,-80.62,0.27,-0.04,-0.65,-0.71
2.0,203.63,45.81,111.25,203.63,45.81,111.25,0.11,0.48,-0.63,0.6,2.0,135.81,22.56,-78.69,135.81,22.56,-78.69,0.3,0.01,-0.64,-0.71
2.0,197.75,46.06,111.81,197.75,46.06,111.81,0.08,0.51,-0.61,0.6,2.0,129.0,21.5,-77.5,129.0,21.5,-77.5,0.35,0.05,-0.63,-0.7
2.0,190.81,42.44,112.69,190.81,42.44,112.69,0.05,0.51,-0.63,0.59,2.0,125.12,21.25,-76.06,125.12,21.25,-76.06,0.37,0.06,-0.62,-0.69
2.0,185.06,37.81,114.12,185.06,37.81,114.12,0.02,0.5,-0.65,0.58,2.0,122.81,21.5,-73.87,122.81,21.5,-73.87,0.39,0.07,-0.6,-0.7
2.0,180.38,34.13,114.94,180.38,34.13,114.94,-0.01,0.49,-0.66,0.57,2.0,119.31,22.06,-71.12,119.31,22.06,-71.12,0.42,0.08,-0.58,-0.69
2.0,176.06,31.19,115.62,176.06,31.19,115.62,-0.02,0.48,-0.67,0.56,3.0,116.19,22.56,-69.75,116.19,22.56,-69.75,0.43,0.08,-0.58,-0.69
2.0,172.69,29.75,115.31,172.69,29.75,115.31,-0.04,0.49,-0.67,0.56,3.0,114.56,23.62,-69.12,114.56,23.62,-69.12,0.44,0.07,-0.58,-0.68
2.0,168.63,28.62,115.56,168.63,28.62,115.56,-0.06,0.51,-0.66,0.55,3.0,114.56,24.44,-69.5,114.56,24.44,-69.5,0.44,0.07,-0.58,-0.68
2.0,165.56,28.75,116.37,165.56,28.75,116.37,-0.07,0.53,-0.64,0.55,3.0,113.19,24.94,-70.06,113.19,24.94,-70.06,0.45,0.08,-0.58,-0.67
2.0,165.0,31.19,116.69,165.0,31.19,116.69,-0.07,0.56,-0.61,0.56,3.0,108.31,25.5,-69.81,108.31,25.5,-69.81,0.49,0.1,-0.58,-0.65
2.0,169.19,35.19,114.06,169.19,35.19,114.06,-0.04,0.56,-0.59,0.58,3.0,103.37,26.0,-69.5,103.37,26.0,-69.5,0.51,0.11,-0.57,-0.63
2.0,174.44,37.88,111.87,174.44,37.88,111.87,-0.02,0.54,-0.59,0.6,3.0,102.06,25.31,-69.87,102.06,25.31,-69.87,0.51,0.13,-0.57,-0.63
2.0,177.38,38.94,111.37,177.38,38.94,111.37,-0.01,0.54,-0.59,0.6,3.0,101.44,24.31,-69.69,101.44,24.31,-69.69,0.52,0.14,-0.57,-0.63
3.0,178.19,38.81,109.62,178.19,38.81,109.62,-0.01,0.52,-0.6,0.61,3.0,98.25,23.5,-69.87,98.25,23.5,-69.87,0.54,0.17,-0.56,-0.61
3.0,178.38,39.75,106.62,178.38,39.75,106.62,-0.01,0.52,-0.58,0.62,3.0,93.69,22.69,-70.62,93.69,22.69,-70.62,0.56,0.2,-0.55,-0.58
3.0,177.94,42.44,104.0,177.94,42.44,104.0,-0.01,0.54,-0.55,0.64,3.0,90.44,22.62,-70.69,90.44,22.62,-70.69,0.57,0.21,-0.55,-0.57
3.0,177.5,45.19,104.31,177.5,45.19,104.31,-0.01,0.56,-0.52,0.64,3.0,90.69,23.44,-69.94,90.69,23.44,-69.94,0.57,0.2,-0.55,-0.58
3.0,180.94,50.81,100.69,180.94,50.81,100.69,0.01,0.58,-0.47,0.66,3.0,93.31,24.81,-69.81,93.31,24.81,-69.81,0.56,0.17,-0.56,-0.59
3.0,182.75,52.88,93.0,182.75,52.88,93.0,0.02,0.56,-0.45,0.7,3.0,97.37,25.25,-70.62,97.37,25.25,-70.62,0.51,0.14,-0.58,-0.62
3.0,180.56,50.69,93.0,180.56,50.69,93.0,0.0,0.55,-0.46,0.7,3.0,105.75,24.06,-71.87,105.75,24.06,-71.87,0.47,0.12,-0.59,-0.65
3.0,176.56,46.81,93.87,176.56,46.81,93.87,-0.03,0.53,-0.49,0.69,3.0,108.62,23.81,-70.31,108.62,23.81,-70.31,0.48,0.11,-0.57,-0.66
3.0,173.06,43.38,91.75,173.06,43.38,91.75,-0.05,0.51,-0.49,0.7,3.0,106.94,24.31,-67.37,106.94,24.31,-67.37,0.5,0.1,-0.56,-0.66
3.0,168.25,38.44,88.44,168.25,38.44,88.44,-0.08,0.48,-0.5,0.72,3.0,105.56,25.44,-65.06,105.56,25.44,-65.06,0.5,0.09,-0.55,-0.67
3.0,168.63,36.81,86.56,168.63,36.81,86.56,-0.07,0.46,-0.52,0.72,3.0,108.81,25.75,-63.25,108.81,25.75,-63.25,0.48,0.06,-0.54,-0.69
3.0,169.31,32.5,88.62,169.31,32.5,88.62,-0.05,0.42,-0.57,0.71,3.0,113.56,25.81,-61.69,113.56,25.81,-61.69,0.46,0.03,-0.53,-0.71
3.0,177.81,32.13,93.56,177.81,32.13,93.56,0.0,0.38,-0.63,0.68,3.0,115.94,26.0,-60.63,115.94,26.0,-60.63,0.45,0.02,-0.53,-0.72
3.0,185.94,30.31,99.0,185.94,30.31,99.0,0.05,0.35,-0.67,0.65,3.0,115.0,26.12,-58.81,115.0,26.12,-58.81,0.47,0.02,-0.51,-0.72
3.0,190.31,32.5,101.56,190.31,32.5,101.56,0.05,0.37,-0.67,0.64,3.0,113.44,25.62,-57.38,113.44,25.62,-57.38,0.48,0.04,-0.5,-0.72
3.0,184.0,32.25,101.25,184.0,32.25,101.25,0.01,0.4,-0.65,0.65,3.0,112.56,24.62,-56.88,112.56,24.62,-56.88,0.48,0.04,-0.5,-0.72
3.0,177.13,32.13,100.75,177.13,32.13,100.75,-0.02,0.43,-0.63,0.65,3.0,112.37,24.0,-56.19,112.37,24.0,-56.19,0.48,0.05,-0.49,-0.72
3.0,175.56,32.31,100.94,175.56,32.31,100.94,-0.02,0.44,-0.63,0.65,3.0,113.5,23.62,-55.0,113.5,23.62,-55.0,0.48,0.04,-0.49,-0.73
3.0,177.81,33.13,102.69,177.81,33.13,102.69,-0.01,0.44,-0.63,0.64,3.0,113.75,23.44,-54.31,113.75,23.44,-54.31,0.48,0.04,-0.48,-0.73
3.0,182.31,34.25,103.0,182.31,34.25,103.0,0.02,0.42,-0.64,0.64,3.0,114.31,23.06,-53.81,114.31,23.06,-53.81,0.48,0.04,-0.48,-0.74
3.0,187.13,35.75,100.69,187.13,35.75,100.69,0.04,0.41,-0.64,0.65,3.0,115.5,22.44,-53.31,115.5,22.44,-53.31,0.47,0.04,-0.47,-0.75
3.0,185.75,35.31,101.87,185.75,35.31,101.87,0.03,0.42,-0.64,0.64,3.0,115.69,21.62,-52.56,115.69,21.62,-52.56,0.47,0.05,-0.46,-0.75
3.0,182.88,34.75,104.12,182.88,34.75,104.12,0.02,0.44,-0.64,0.63,3.0,115.31,20.62,-52.19,115.31,20.62,-52.19,0.47,0.05,-0.46,-0.75
3.0,183.94,36.63,105.19,183.94,36.63,105.19,0.03,0.46,-0.63,0.63,3.0,115.0,19.44,-52.0,115.0,19.44,-52.0,0.48,0.07,-0.45,-0.75
3.0,185.94,37.69,106.81,185.94,37.69,106.81,0.04,0.46,-0.64,0.62,3.0,114.37,18.44,-52.0,114.37,18.44,-52.0,0.48,0.08,-0.45,-0.75
3.0,186.25,38.0,107.87,186.25,38.0,107.87,0.03,0.47,-0.63,0.62,3.0,113.94,18.06,-51.88,113.94,18.06,-51.88,0.49,0.08,-0.45,-0.75
3.0,182.69,38.5,107.31,182.69,38.5,107.31,0.0,0.5,-0.61,0.62,3.0,114.5,18.06,-51.81,114.5,18.06,-51.81,0.48,0.08,-0.45,-0.75
3.0,177.19,38.19,108.31,177.19,38.19,108.31,-0.02,0.52,-0.6,0.61,3.0,115.81,17.75,-52.25,115.81,17.75,-52.25,0.47,0.08,-0.45,-0.76
3.0,173.25,39.56,109.81,173.25,39.56,109.81,-0.04,0.56,-0.56,0.61,3.0,116.5,17.06,-52.81,116.5,17.06,-52.81,0.47,0.09,-0.45,-0.75
3.0,168.06,41.56,110.37,168.06,41.56,110.37,-0.06,0.6,-0.52,0.6,3.0,115.37,16.31,-52.5,115.37,16.31,-52.5,0.48,0.1,-0.44,-0.75
3.0,160.44,41.44,111.94,160.44,41.44,111.94,-0.1,0.64,-0.48,0.59,3.0,113.81,15.69,-51.88,113.81,15.69,-51.88,0.49,0.11,-0.44,-0.75
3.0,153.13,41.88,113.12,153.13,41.88,113.12,-0.14,0.68,-0.43,0.58,3.0,112.5,14.63,-51.81,112.5,14.63,-51.81,0.5,0.12,-0.43,-0.74
3.0,148.81,42.25,112.75,148.81,42.25,112.75,-0.17,0.7,-0.38,0.57,3.0,111.62,13.75,-52.31,111.62,13.75,-52.31,0.5,0.13,-0.43,-0.74
3.0,146.69,43.5,112.44,146.69,43.5,112.44,-0.17,0.71,-0.37,0.58,3.0,111.12,13.5,-52.5,111.12,13.5,-52.5,0.5,0.14,-0.43,-0.74
3.0,146.44,43.06,112.75,146.44,43.06,112.75,-0.17,0.71,-0.38,0.57,3.0,111.0,13.38,-52.5,111.0,13.38,-52.5,0.5,0.14,-0.43,-0.74
3.0,145.5,42.81,113.0,145.5,42.81,113.0,-0.18,0.71,-0.36,0.57,3.0,110.62,13.19,-52.5,110.62,13.19,-52.5,0.51,0.14,-0.43,-0.73
3.0,140.81,43.31,111.25,140.81,43.31,111.25,-0.22,0.72,-0.32,0.57,3.0,110.25,13.0,-52.69,110.25,13.0,-52.69,0.51,0.14,-0.43,-0.73
3.0,135.31,44.81,109.5,135.31,44.81,109.5,-0.24,0.74,-0.27,0.57,3.0,110.31,12.88,-53.0,110.31,12.88,-53.0,0.51,0.15,-0.43,-0.73
3.0,131.0,45.38,107.94,131.0,45.38,107.94,-0.27,0.74,-0.24,0.57,3.0,110.31,12.94,-53.06,110.31,12.94,-53.06,0.51,0.15,-0.43,-0.73
3.0,127.5,45.19,105.37,127.5,45.19,105.37,-0.29,0.73,-0.23,0.57,3.0,110.56,12.94,-53.13,110.56,12.94,-53.13,0.51,0.15,-0.43,-0.73
3.0,122.19,44.19,103.62,122.19,44.19,103.62,-0.33,0.73,-0.2,0.56,3.0,110.87,12.75,-53.25,110.87,12.75,-53.25,0.5,0.15,-0.43,-0.73
3.0,114.25,43.75,99.81,114.25,43.75,99.81,-0.37,0.73,-0.15,0.56,3.0,110.94,12.81,-53.31,110.94,12.81,-53.31,0.5,0.15,-0.43,-0.73
3.0,109.37,45.0,93.56,109.37,45.0,93.56,-0.41,0.71,-0.11,0.56,3.0,111.06,12.88,-53.31,111.06,12.88,-53.31,0.5,0.14,-0.43,-0.73
3.0,104.75,45.13,89.75,104.75,45.13,89.75,-0.43,0.7,-0.07,0.56,3.0,111.19,12.88,-53.25,111.19,12.88,-53.25,0.5,0.14,-0.43,-0.73
3.0,104.12,48.19,88.94,104.12,48.19,88.94,-0.45,0.7,-0.05,0.55,3.0,111.19,12.88,-53.25,111.19,12.88,-53.25,0.5,0.15,-0.43,-0.73
3.0,105.81,51.19,88.06,105.81,51.19,88.06,-0.42,0.7,-0.01,0.57,3.0,111.12,12.75,-53.44,111.12,12.75,-53.44,0.5,0.15,-0.43,-0.73
3.0,107.25,52.94,93.12,107.25,52.94,93.12,-0.41,0.73,-0.01,0.55,3.0,111.06,12.81,-53.56,111.06,12.81,-53.56,0.5,0.15,-0.44,-0.73
3.0,102.56,51.19,98.44,102.56,51.19,98.44,-0.42,0.74,0.03,0.53,3.0,111.31,12.81,-53.63,111.31,12.81,-53.63,0.5,0.15,-0.44,-0.73
3.0,103.81,56.38,98.31,103.81,56.38,98.31,-0.42,0.73,0.06,0.54,3.0,111.37,12.69,-53.81,111.37,12.69,-53.81,0.5,0.15,-0.44,-0.73
3.0,107.12,59.31,92.5,107.12,59.31,92.5,-0.41,0.7,0.08,0.57,3.0,111.44,12.44,-53.88,111.44,12.44,-53.88,0.5,0.15,-0.44,-0.73
3.0,110.62,62.19,91.19,110.62,62.19,91.19,-0.4,0.71,0.07,0.57,3.0,111.19,12.25,-54.06,111.19,12.25,-54.06,0.5,0.15,-0.44,-0.73
3.0,111.62,59.5,95.19,111.62,59.5,95.19,-0.38,0.72,0.04,0.58,3.0,110.69,12.19,-54.13,110.69,12.19,-54.13,0.5,0.16,-0.44,-0.73
3.0,116.12,59.81,94.69,116.12,59.81,94.69,-0.37,0.72,0.02,0.59,3.0,110.5,12.13,-54.25,110.5,12.13,-54.25,0.51,0.16,-0.44,-0.73
3.0,119.25,60.56,92.44,119.25,60.56,92.44,-0.35,0.71,0.01,0.6,3.0,110.12,12.13,-54.19,110.12,12.13,-54.19,0.51,0.16,-0.43,-0.73
3.0,121.19,60.88,91.0,121.19,60.88,91.0,-0.35,0.71,0.0,0.61,3.0,109.94,12.13,-54.13,109.94,12.13,-54.13,0.51,0.16,-0.43,-0.73
3.0,121.56,59.38,88.87,121.56,59.38,88.87,-0.35,0.7,-0.02,0.62,3.0,110.06,12.13,-54.19,110.06,12.13,-54.19,0.51,0.16,-0.43,-0.73
3.0,118.5,54.25,83.56,118.5,54.25,83.56,-0.37,0.68,-0.06,0.63,3.0,110.19,11.94,-54.5,110.19,11.94,-54.5,0.51,0.16,-0.44,-0.73
3.0,113.37,46.94,78.75,113.37,46.94,78.75,-0.42,0.64,-0.12,0.63,3.0,109.69,12.0,-55.0,109.69,12.0,-55.0,0.51,0.16,-0.44,-0.72
3.0,106.69,36.31,75.69,106.69,36.31,75.69,-0.49,0.59,-0.19,0.61,3.0,108.94,12.69,-55.0,108.94,12.69,-55.0,0.51,0.16,-0.44,-0.72
3.0,100.94,31.12,67.31,100.94,31.12,67.31,-0.54,0.54,-0.17,0.62,3.0,109.0,13.13,-55.19,109.0,13.13,-55.19,0.51,0.16,-0.45,-0.72
3.0,95.44,29.19,58.06,95.44,29.19,58.06,-0.58,0.48,-0.09,0.65,3.0,108.94,13.81,-55.69,108.94,13.81,-55.69,0.51,0.15,-0.45,-0.72
3.0,97.0,32.13,43.38,97.0,32.13,43.38,-0.61,0.42,-0.04,0.67,3.0,109.12,14.19,-56.25,109.12,14.19,-56.25,0.51,0.15,-0.46,-0.72
3.0,94.19,29.56,36.0,94.19,29.56,36.0,-0.62,0.38,-0.01,0.68,3.0,109.62,14.69,-56.25,109.62,14.69,-56.25,0.5,0.14,-0.46,-0.72
3.0,95.94,29.56,34.38,95.94,29.56,34.38,-0.62,0.38,-0.03,0.68,3.0,111.69,14.56,-56.38,111.69,14.56,-56.38,0.49,0.14,-0.46,-0.73
3.0,94.0,26.94,41.88,94.0,26.94,41.88,-0.62,0.41,-0.09,0.66,3.0,112.87,14.44,-56.31,112.87,14.44,-56.31,0.48,0.13,-0.46,-0.73
3.0,93.62,23.75,47.38,93.62,23.75,47.38,-0.61,0.42,-0.13,0.66,3.0,112.69,14.5,-56.19,112.69,14.5,-56.19,0.49,0.13,-0.46,-0.73
3.0,93.44,21.31,47.88,93.44,21.31,47.88,-0.62,0.4,-0.14,0.66,3.0,112.19,14.81,-56.0,112.19,14.81,-56.0,0.49,0.13,-0.46,-0.73
3.0,94.44,20.94,42.81,94.44,20.94,42.81,-0.62,0.38,-0.12,0.67,3.0,113.0,15.19,-55.63,113.0,15.19,-55.63,0.48,0.12,-0.46,-0.74
3.0,94.94,20.5,35.5,94.94,20.5,35.5,-0.64,0.32,-0.08,0.7,3.0,115.12,15.38,-55.5,115.12,15.38,-55.5,0.47,0.11,-0.46,-0.75
3.0,96.0,20.25,29.87,96.0,20.25,29.87,-0.64,0.3,-0.06,0.71,3.0,117.06,15.31,-55.25,117.06,15.31,-55.25,0.46,0.11,-0.46,-0.75
3.0,96.5,19.69,29.0,96.5,19.69,29.0,-0.64,0.29,-0.06,0.71,3.0,118.62,15.44,-55.63,118.62,15.44,-55.63,0.45,0.1,-0.47,-0.76
3.0,98.0,19.37,31.0,98.0,19.37,31.0,-0.62,0.3,-0.08,0.72,3.0,119.69,15.88,-55.75,119.69,15.88,-55.75,0.44,0.09,-0.47,-0.76
3.0,99.5,19.31,33.56,99.5,19.31,33.56,-0.61,0.31,-0.1,0.72,3.0,120.69,16.25,-55.75,120.69,16.25,-55.75,0.43,0.08,-0.47,-0.77
3.0,100.44,19.5,35.75,100.44,19.5,35.75,-0.6,0.32,-0.11,0.72,3.0,123.44,15.63,-55.56,123.44,15.63,-55.56,0.41,0.08,-0.47,-0.78
3.0,101.56,19.87,35.5,101.56,19.87,35.5,-0.59,0.32,-0.11,0.73,3.0,125.62,14.94,-54.69,125.62,14.94,-54.69,0.4,0.07,-0.46,-0.79
3.0,105.37,21.12,32.44,105.37,21.12,32.44,-0.56,0.31,-0.09,0.76,3.0,127.31,14.25,-54.13,127.31,14.25,-54.13,0.39,0.07,-0.46,-0.8
3.0,109.75,22.81,29.94,109.75,22.81,29.94,-0.54,0.31,-0.08,0.78,3.0,127.87,14.13,-53.19,127.87,14.13,-53.19,0.39,0.07,-0.45,-0.8
3.0,109.37,22.75,31.06,109.37,22.75,31.06,-0.54,0.31,-0.09,0.77,3.0,129.13,14.13,-52.31,129.13,14.13,-52.31,0.38,0.06,-0.45,-0.81
3.0,110.69,22.87,30.56,110.69,22.87,30.56,-0.53,0.3,-0.08,0.79,3.0,130.69,13.75,-52.06,130.69,13.75,-52.06,0.37,0.06,-0.44,-0.81
3.0,116.56,25.0,26.62,116.56,25.0,26.62,-0.49,0.3,-0.06,0.82,3.0,131.88,13.25,-51.56,131.88,13.25,-51.56,0.36,0.06,-0.44,-0.82
3.0,117.81,26.62,27.87,117.81,26.62,27.87,-0.49,0.32,-0.07,0.81,3.0,133.75,12.31,-51.94,133.75,12.31,-51.94,0.35,0.06,-0.45,-0.82
3.0,115.87,26.5,31.0,115.87,26.5,31.0,-0.5,0.33,-0.08,0.8,3.0,135.0,12.0,-54.06,135.0,12.0,-54.06,0.34,0.07,-0.47,-0.82
3.0,118.06,27.0,28.31,118.06,27.0,28.31,-0.48,0.32,-0.06,0.82,3.0,135.88,10.94,-57.06,135.88,10.94,-57.06,0.33,0.08,-0.48,-0.81
3.0,122.06,28.25,24.75,122.06,28.25,24.75,-0.47,0.31,-0.05,0.83,3.0,135.0,10.44,-58.44,135.0,10.44,-58.44,0.33,0.09,-0.48,-0.8
3.0,120.0,27.19,26.06,120.0,27.19,26.06,-0.47,0.31,-0.06,0.82,3.0,136.25,9.75,-59.94,136.25,9.75,-59.94,0.32,0.09,-0.49,-0.8
3.0,122.31,28.19,23.62,122.31,28.19,23.62,-0.45,0.31,-0.03,0.84,3.0,137.06,10.06,-60.31,137.06,10.06,-60.31,0.32,0.09,-0.5,-0.8
3.0,124.69,29.5,21.12,124.69,29.5,21.12,-0.44,0.31,-0.03,0.84,3.0,137.0,10.25,-60.88,137.0,10.25,-60.88,0.32,0.09,-0.5,-0.8
3.0,120.0,28.12,24.62,120.0,28.12,24.62,-0.48,0.31,-0.04,0.82,3.0,137.75,9.5,-62.63,137.75,9.5,-62.63,0.31,0.09,-0.51,-0.8
3.0,121.31,27.5,22.62,121.31,27.5,22.62,-0.47,0.3,-0.04,0.83,3.0,138.69,8.63,-64.12,138.69,8.63,-64.12,0.3,0.1,-0.52,-0.79
3.0,121.31,25.25,23.37,121.31,25.25,23.37,-0.47,0.29,-0.05,0.83,3.0,139.56,8.13,-64.75,139.56,8.13,-64.75,0.29,0.11,-0.53,-0.79
3.0,120.94,23.5,23.19,120.94,23.5,23.19,-0.47,0.27,-0.06,0.84,3.0,141.75,6.56,-66.25,141.75,6.56,-66.25,0.26,0.12,-0.54,-0.79
3.0,121.0,22.75,19.81,121.0,22.75,19.81,-0.48,0.25,-0.04,0.84,3.0,144.88,4.31,-68.0,144.88,4.31,-68.0,0.24,0.13,-0.55,-0.79
3.0,121.5,22.62,17.19,121.5,22.62,17.19,-0.47,0.24,-0.02,0.85,3.0,146.94,2.19,-70.5,146.94,2.19,-70.5,0.23,0.15,-0.57,-0.78
3.0,121.75,22.31,14.69,121.75,22.31,14.69,-0.47,0.23,-0.01,0.85,3.0,149.25,0.63,-73.87,149.25,0.63,-73.87,0.2,0.15,-0.59,-0.77
3.0,122.37,22.12,13.25,122.37,22.12,13.25,-0.47,0.22,-0.0,0.86,3.0,152.63,0.06,-77.25,152.63,0.06,-77.25,0.17,0.15,-0.61,-0.75
3.0,123.06,22.0,13.31,123.06,22.0,13.31,-0.46,0.22,-0.01,0.86,3.0,157.38,-3.0,-82.0,157.38,-3.0,-82.0,0.15,0.16,-0.64,-0.74
3.0,123.81,22.0,13.25,123.81,22.0,13.25,-0.46,0.22,-0.0,0.86,3.0,161.56,-6.88,-88.94,161.56,-6.88,-88.94,0.11,0.19,-0.67,-0.7
3.0,124.31,22.0,12.31,124.31,22.0,12.31,-0.45,0.22,0.0,0.86,3.0,163.0,-9.75,-92.56,163.0,-9.75,-92.56,0.1,0.23,-0.69,-0.68
3.0,124.94,21.81,11.25,124.94,21.81,11.25,-0.45,0.21,0.01,0.87,3.0,160.13,-9.88,-95.37,160.13,-9.88,-95.37,0.12,0.25,-0.7,-0.66
3.0,126.31,22.19,10.06,126.31,22.19,10.06,-0.44,0.21,0.01,0.87,3.0,162.75,-11.81,-97.81,162.75,-11.81,-97.81,0.1,0.26,-0.71,-0.65
3.0,128.44,22.87,10.13,128.44,22.87,10.13,-0.42,0.22,0.01,0.88,3.0,170.75,-16.75,-99.5,170.75,-16.75,-99.5,0.05,0.28,-0.71,-0.65
3.0,129.94,23.06,10.75,129.94,23.06,10.75,-0.41,0.22,0.0,0.89,3.0,177.19,-20.5,-103.69,177.19,-20.5,-103.69,0.02,0.3,-0.72,-0.62
3.0,130.94,23.12,11.13,130.94,23.12,11.13,-0.4,0.22,0.0,0.89,3.0,181.81,-22.19,-108.19,181.81,-22.19,-108.19,-0.01,0.31,-0.74,-0.6
3.0,132.31,24.0,10.5,132.31,24.0,10.5,-0.39,0.23,0.01,0.89,3.0,185.44,-23.37,-110.37,185.44,-23.37,-110.37,-0.04,0.3,-0.76,-0.58
3.0,133.63,25.12,9.94,133.63,25.12,9.94,-0.38,0.24,0.01,0.89,3.0,192.13,-26.0,-112.31,192.13,-26.0,-112.31,-0.07,0.3,-0.76,-0.57
3.0,134.56,26.25,9.81,134.56,26.25,9.81,-0.37,0.24,0.02,0.89,3.0,194.38,-26.75,-113.19,194.38,-26.75,-113.19,-0.07,0.3,-0.76,-0.56
3.0,134.63,27.19,10.25,134.63,27.19,10.25,-0.37,0.25,0.02,0.89,3.0,196.0,-27.12,-114.19,196.0,-27.12,-114.19,-0.09,0.3,-0.77,-0.56
3.0,134.19,28.31,10.19,134.19,28.31,10.19,-0.38,0.26,0.03,0.89,3.0,201.63,-29.56,-114.25,201.63,-29.56,-114.25,-0.12,0.3,-0.77,-0.56
3.0,133.81,30.0,9.38,133.81,30.0,9.38,-0.38,0.27,0.04,0.88,3.0,206.94,-32.5,-114.0,206.94,-32.5,-114.0,-0.14,0.3,-0.76,-0.56
3.0,133.56,31.25,8.88,133.56,31.25,8.88,-0.38,0.28,0.04,0.88,3.0,208.31,-33.31,-114.06,208.31,-33.31,-114.06,-0.14,0.3,-0.76,-0.56
3.0,133.56,32.63,9.19,133.56,32.63,9.19,-0.38,0.29,0.05,0.88,3.0,207.06,-32.75,-114.81,207.06,-32.75,-114.81,-0.13,0.31,-0.77,-0.55
3.0,133.0,33.69,9.44,133.0,33.69,9.44,-0.38,0.3,0.05,0.87,3.0,211.63,-35.19,-117.0,211.63,-35.19,-117.0,-0.17,0.32,-0.76,-0.54
3.0,134.38,34.88,9.0,134.38,34.88,9.0,-0.36,0.31,0.06,0.88,3.0,219.56,-40.19,-117.94,219.56,-40.19,-117.94,-0.2,0.34,-0.75,-0.53
3.0,136.81,36.19,7.81,136.81,36.19,7.81,-0.34,0.31,0.06,0.88,3.0,223.75,-42.75,-119.56,223.75,-42.75,-119.56,-0.21,0.35,-0.75,-0.52
3.0,138.63,37.0,7.13,138.63,37.0,7.13,-0.33,0.32,0.06,0.89,3.0,225.81,-43.5,-121.25,225.81,-43.5,-121.25,-0.23,0.36,-0.75,-0.51
3.0,139.38,37.56,6.19,139.38,37.56,6.19,-0.33,0.32,0.07,0.89,3.0,231.19,-46.63,-123.31,231.19,-46.63,-123.31,-0.25,0.37,-0.74,-0.5
3.0,139.25,38.31,4.63,139.25,38.31,4.63,-0.33,0.32,0.09,0.88,3.0,234.81,-48.5,-126.25,234.81,-48.5,-126.25,-0.26,0.39,-0.74,-0.48
3.0,138.63,38.94,3.5,138.63,38.94,3.5,-0.33,0.32,0.1,0.88,3.0,238.56,-50.5,-129.94,238.56,-50.5,-129.94,-0.27,0.4,-0.74,-0.47
3.0,138.69,39.75,2.25,138.69,39.75,2.25,-0.33,0.32,0.11,0.88,3.0,242.06,-51.5,-134.19,242.06,-51.5,-134.19,-0.28,0.42,-0.74,-0.45
3.0,139.13,40.75,0.0,139.13,40.75,0.0,-0.33,0.33,0.13,0.88,3.0,246.88,-52.56,-138.44,246.88,-52.56,-138.44,-0.29,0.42,-0.74,-0.43
3.0,139.19,41.44,-1.37,139.19,41.44,-1.37,-0.33,0.33,0.13,0.88,3.0,249.81,-53.81,-140.81,249.81,-53.81,-140.81,-0.3,0.43,-0.74,-0.42
3.0,139.13,41.75,-1.0,139.13,41.75,-1.0,-0.33,0.33,0.13,0.87,3.0,251.06,-53.0,-142.75,251.06,-53.0,-142.75,-0.3,0.43,-0.75,-0.41
3.0,138.69,42.0,-0.75,138.69,42.0,-0.75,-0.33,0.33,0.13,0.87,3.0,255.31,-54.25,-145.0,255.31,-54.25,-145.0,-0.32,0.43,-0.74,-0.4
3.0,138.0,41.94,-0.75,138.0,41.94,-0.75,-0.34,0.33,0.13,0.87,3.0,257.38,-55.0,-146.69,257.38,-55.0,-146.69,-0.31,0.43,-0.74,-0.4
3.0,137.25,41.56,-0.63,137.25,41.56,-0.63,-0.34,0.33,0.13,0.87,3.0,255.63,-54.38,-145.5,255.63,-54.38,-145.5,-0.32,0.43,-0.74,-0.4
3.0,136.94,41.44,-0.5,136.94,41.44,-0.5,-0.34,0.33,0.13,0.87,3.0,257.75,-55.81,-146.25,257.75,-55.81,-146.25,-0.32,0.43,-0.74,-0.4
3.0,136.5,41.63,-0.56,136.5,41.63,-0.56,-0.35,0.33,0.14,0.87,3.0,256.38,-52.94,-146.44,256.38,-52.94,-146.44,-0.3,0.42,-0.76,-0.39
3.0,136.56,42.13,-1.0,136.56,42.13,-1.0,-0.34,0.33,0.14,0.87,3.0,254.19,-50.31,-146.19,254.19,-50.31,-146.19,-0.28,0.41,-0.78,-0.39
3.0,136.0,43.06,0.0,136.0,43.06,0.0,-0.35,0.34,0.14,0.86,3.0,245.69,-44.13,-144.44,245.69,-44.13,-144.44,-0.23,0.39,-0.81,-0.38
3.0,135.25,43.69,0.12,135.25,43.69,0.12,-0.35,0.35,0.14,0.86,3.0,241.19,-42.06,-142.31,241.19,-42.06,-142.31,-0.23,0.38,-0.81,-0.39
3.0,135.13,44.19,-0.31,135.13,44.19,-0.31,-0.35,0.35,0.15,0.86,3.0,239.5,-41.06,-141.94,239.5,-41.06,-141.94,-0.22,0.38,-0.81,-0.39
3.0,134.63,44.5,0.63,134.63,44.5,0.63,-0.36,0.35,0.14,0.85,3.0,239.75,-41.69,-141.38,239.75,-41.69,-141.38,-0.23,0.38,-0.8,-0.4
3.0,133.69,44.63,2.5,133.69,44.63,2.5,-0.37,0.36,0.13,0.85,3.0,241.94,-43.94,-140.06,241.94,-43.94,-140.06,-0.25,0.38,-0.79,-0.41
3.0,133.06,44.63,3.38,133.06,44.63,3.38,-0.37,0.36,0.13,0.85,3.0,246.0,-47.5,-138.75,246.0,-47.5,-138.75,-0.28,0.38,-0.77,-0.42
3.0,133.31,44.19,2.38,133.31,44.19,2.38,-0.37,0.35,0.14,0.85,3.0,247.81,-49.81,-139.56,247.81,-49.81,-139.56,-0.28,0.4,-0.77,-0.42
3.0,133.88,43.5,1.12,133.88,43.5,1.12,-0.36,0.34,0.14,0.86,3.0,250.38,-51.56,-140.63,250.38,-51.56,-140.63,-0.3,0.4,-0.75,-0.42
3.0,134.38,42.81,0.94,134.38,42.81,0.94,-0.36,0.34,0.13,0.86,3.0,255.25,-54.75,-139.94,255.25,-54.75,-139.94,-0.33,0.4,-0.75,-0.42
3.0,134.81,42.13,1.31,134.81,42.13,1.31,-0.36,0.33,0.13,0.86,3.0,259.5,-57.0,-140.25,259.5,-57.0,-140.25,-0.35,0.39,-0.74,-0.41
3.0,135.0,41.69,1.56,135.0,41.69,1.56,-0.36,0.34,0.13,0.86,3.0,261.25,-58.0,-140.38,261.25,-58.0,-140.38,-0.36,0.39,-0.74,-0.41
3.0,135.44,42.94,0.75,135.44,42.94,0.75,-0.35,0.34,0.13,0.86,3.0,262.5,-59.25,-139.69,262.5,-59.25,-139.69,-0.37,0.39,-0.74,-0.42
3.0,135.63,43.19,0.12,135.63,43.19,0.12,-0.35,0.34,0.14,0.86,3.0,264.94,-61.25,-139.63,264.94,-61.25,-139.63,-0.39,0.39,-0.73,-0.41
3.0,135.69,43.44,-0.63,135.69,43.44,-0.63,-0.35,0.34,0.14,0.86,3.0,268.31,-63.56,-141.31,268.31,-63.56,-141.31,-0.41,0.39,-0.72,-0.41
3.0,136.06,43.69,-0.75,136.06,43.69,-0.75,-0.35,0.34,0.14,0.86,3.0,271.88,-65.87,-142.56,271.88,-65.87,-142.56,-0.42,0.39,-0.71,-0.4
3.0,136.5,44.13,0.12,136.5,44.13,0.12,-0.34,0.35,0.14,0.86,3.0,273.0,-66.62,-142.06,273.0,-66.62,-142.06,-0.43,0.39,-0.71,-0.4
3.0,136.63,44.44,0.25,136.63,44.44,0.25,-0.34,0.35,0.14,0.86,3.0,273.5,-66.25,-142.94,273.5,-66.25,-142.94,-0.42,0.39,-0.72,-0.4
3.0,136.56,44.94,-0.69,136.56,44.94,-0.69,-0.34,0.35,0.15,0.86,3.0,273.75,-65.69,-143.94,273.75,-65.69,-143.94,-0.42,0.39,-0.72,-0.39
3.0,136.63,45.19,-1.56,136.63,45.19,-1.56,-0.34,0.35,0.15,0.86,3.0,273.06,-64.37,-144.75,273.06,-64.37,-144.75,-0.41,0.39,-0.73,-0.39
3.0,136.75,45.19,-2.06,136.75,45.19,-2.06,-0.34,0.35,0.15,0.86,3.0,272.88,-63.56,-145.63,272.88,-63.56,-145.63,-0.41,0.39,-0.73,-0.39
3.0,137.06,44.75,-2.0,137.06,44.75,-2.0,-0.34,0.35,0.15,0.86,3.0,273.44,-63.94,-145.88,273.44,-63.94,-145.88,-0.41,0.39,-0.73,-0.39
3.0,137.31,44.19,-1.81,137.31,44.19,-1.81,-0.34,0.34,0.15,0.86,3.0,274.56,-65.44,-145.19,274.56,-65.44,-145.19,-0.42,0.39,-0.72,-0.39
3.0,137.75,43.38,-2.31,137.75,43.38,-2.31,-0.33,0.34,0.15,0.87,3.0,276.94,-67.87,-144.38,276.94,-67.87,-144.38,-0.45,0.38,-0.71,-0.39
3.0,137.81,42.38,-3.56,137.81,42.38,-3.56,-0.34,0.33,0.16,0.87,3.0,278.25,-69.44,-143.0,278.25,-69.44,-143.0,-0.45,0.38,-0.71,-0.39
3.0,137.81,41.56,-4.94,137.81,41.56,-4.94,-0.34,0.32,0.16,0.87,3.0,278.69,-70.12,-142.19,278.69,-70.12,-142.19,-0.46,0.38,-0.7,-0.39
3.0,138.25,41.13,-6.44,138.25,41.13,-6.44,-0.33,0.31,0.17,0.87,3.0,278.19,-69.69,-142.38,278.19,-69.69,-142.38,-0.46,0.38,-0.7,-0.39
3.0,139.31,40.75,-8.06,139.31,40.75,-8.06,-0.32,0.31,0.18,0.88,3.0,277.69,-68.69,-143.5,277.69,-68.69,-143.5,-0.45,0.38,-0.71,-0.39
3.0,140.13,40.69,-8.81,140.13,40.69,-8.81,-0.32,0.31,0.18,0.88,3.0,276.81,-67.31,-144.44,276.81,-67.31,-144.44,-0.44,0.38,-0.72,-0.39
3.0,140.38,40.88,-9.06,140.38,40.88,-9.06,-0.32,0.31,0.18,0.88,3.0,276.19,-66.25,-145.13,276.19,-66.25,-145.13,-0.43,0.38,-0.72,-0.39
3.0,140.56,41.06,-9.44,140.56,41.06,-9.44,-0.31,0.31,0.18,0.88,3.0,275.5,-64.19,-145.81,275.5,-64.19,-145.81,-0.42,0.38,-0.73,-0.38
3.0,140.5,41.25,-9.69,140.5,41.25,-9.69,-0.32,0.31,0.18,0.88,3.0,275.06,-61.63,-146.75,275.06,-61.63,-146.75,-0.41,0.37,-0.75,-0.37
3.0,140.5,41.5,-9.63,140.5,41.5,-9.63,-0.31,0.31,0.18,0.88,3.0,273.56,-59.0,-145.81,273.56,-59.0,-145.81,-0.39,0.35,-0.77,-0.37
3.0,140.88,42.63,-9.88,140.88,42.63,-9.88,-0.31,0.32,0.18,0.88,3.0,273.25,-57.75,-145.63,273.25,-57.75,-145.63,-0.38,0.34,-0.78,-0.36
3.0,141.31,42.81,-9.31,141.31,42.81,-9.31,-0.31,0.33,0.18,0.88,3.0,275.06,-58.94,-145.0,275.06,-58.94,-145.0,-0.4,0.34,-0.77,-0.36
3.0,141.75,42.94,-8.88,141.75,42.94,-8.88,-0.3,0.33,0.18,0.88,3.0,276.81,-60.5,-144.13,276.81,-60.5,-144.13,-0.41,0.33,-0.77,-0.36
3.0,142.0,43.13,-8.69,142.0,43.13,-8.69,-0.3,0.33,0.18,0.88,3.0,277.56,-61.25,-143.0,277.56,-61.25,-143.0,-0.42,0.32,-0.77,-0.37
3.0,142.0,43.31,-8.69,142.0,43.31,-8.69,-0.3,0.33,0.18,0.88,3.0,278.63,-62.94,-140.94,278.63,-62.94,-140.94,-0.43,0.32,-0.76,-0.37
3.0,142.13,43.69,-8.56,142.13,43.69,-8.56,-0.3,0.34,0.18,0.88,3.0,279.44,-64.87,-138.06,279.44,-64.87,-138.06,-0.45,0.32,-0.75,-0.38
3.0,142.13,44.38,-8.5,142.13,44.38,-8.5,-0.3,0.34,0.18,0.87,3.0,280.0,-65.94,-136.69,280.0,-65.94,-136.69,-0.46,0.31,-0.74,-0.38
3.0,142.38,44.94,-8.13,142.38,44.94,-8.13,-0.3,0.35,0.17,0.87,3.0,281.19,-69.12,-132.38,281.19,-69.12,-132.38,-0.48,0.32,-0.72,-0.39
3.0,142.81,45.13,-7.56,142.81,45.13,-7.56,-0.29,0.35,0.17,0.87,3.0,281.25,-70.19,-130.0,281.25,-70.19,-130.0,-0.48,0.32,-0.71,-0.4
3.0,143.0,45.31,-7.38,143.0,45.31,-7.38,-0.29,0.35,0.17,0.87,3.0,281.75,-70.19,-129.63,281.75,-70.19,-129.63,-0.49,0.31,-0.71,-0.39
3.0,143.38,45.38,-7.19,143.38,45.38,-7.19,-0.29,0.35,0.17,0.87,3.0,282.44,-70.81,-128.38,282.44,-70.81,-128.38,-0.49,0.31,-0.71,-0.39
3.0,143.69,45.44,-7.06,143.69,45.44,-7.06,-0.29,0.35,0.16,0.88,3.0,283.13,-71.81,-126.06,283.13,-71.81,-126.06,-0.5,0.31,-0.7,-0.4
3.0,144.0,45.25,-7.31,144.0,45.25,-7.31,-0.28,0.35,0.17,0.88,3.0,284.13,-72.56,-123.87,284.13,-72.56,-123.87,-0.51,0.3,-0.7,-0.4
3.0,144.38,45.0,-7.81,144.38,45.0,-7.81,-0.28,0.35,0.17,0.88,3.0,284.44,-72.69,-123.56,284.44,-72.69,-123.56,-0.51,0.3,-0.7,-0.4
3.0,144.5,44.63,-8.44,144.5,44.63,-8.44,-0.28,0.34,0.17,0.88,3.0,285.13,-73.44,-122.56,285.13,-73.44,-122.56,-0.52,0.3,-0.7,-0.4
3.0,144.69,44.31,-9.0,144.69,44.31,-9.0,-0.28,0.34,0.17,0.88,3.0,285.25,-73.25,-123.56,285.25,-73.25,-123.56,-0.52,0.3,-0.7,-0.39
3.0,144.81,44.31,-9.19,144.81,44.31,-9.19,-0.28,0.34,0.17,0.88,3.0,285.31,-73.69,-122.31,285.31,-73.69,-122.31,-0.52,0.3,-0.7,-0.4
3.0,145.06,44.44,-9.5,145.06,44.44,-9.5,-0.28,0.34,0.18,0.88,3.0,284.94,-73.87,-121.56,284.94,-73.87,-121.56,-0.52,0.3,-0.69,-0.4
3.0,145.38,44.31,-9.63,145.38,44.31,-9.63,-0.27,0.34,0.17,0.88,3.0,284.56,-73.87,-121.5,284.56,-73.87,-121.5,-0.52,0.31,-0.69,-0.4
3.0,145.56,44.25,-9.44,145.56,44.25,-9.44,-0.27,0.34,0.17,0.88,3.0,284.19,-74.25,-120.56,284.19,-74.25,-120.56,-0.52,0.31,-0.69,-0.4
3.0,145.63,44.25,-9.31,145.63,44.25,-9.31,-0.27,0.34,0.17,0.88,3.0,284.0,-74.69,-119.56,284.0,-74.69,-119.56,-0.52,0.31,-0.68,-0.41
3.0,145.69,44.25,-9.38,145.69,44.25,-9.38,-0.27,0.34,0.17,0.88,3.0,284.38,-75.25,-119.06,284.38,-75.25,-119.06,-0.52,0.32,-0.68,-0.41
3.0,145.88,44.38,-9.44,145.88,44.38,-9.44,-0.27,0.34,0.17,0.88,3.0,285.06,-76.12,-119.19,285.06,-76.12,-119.19,-0.53,0.32,-0.67,-0.4
3.0,146.0,44.56,-9.44,146.0,44.56,-9.44,-0.27,0.35,0.17,0.88,3.0,285.31,-76.62,-120.62,285.31,-76.62,-120.62,-0.53,0.33,-0.67,-0.4
3.0,146.13,44.69,-9.25,146.13,44.69,-9.25,-0.27,0.35,0.17,0.88,3.0,285.38,-77.25,-120.25,285.38,-77.25,-120.25,-0.53,0.33,-0.67,-0.4
3.0,146.38,44.88,-8.88,146.38,44.88,-8.88,-0.27,0.35,0.17,0.88,3.0,286.0,-78.19,-119.62,286.0,-78.19,-119.62,-0.54,0.33,-0.66,-0.4
3.0,146.56,45.0,-8.56,146.56,45.0,-8.56,-0.26,0.35,0.17,0.88,3.0,286.56,-78.75,-118.12,286.56,-78.75,-118.12,-0.54,0.33,-0.66,-0.4
3.0,146.69,45.13,-8.63,146.69,45.13,-8.63,-0.26,0.35,0.17,0.88,3.0,287.69,-80.0,-113.69,287.69,-80.0,-113.69,-0.55,0.33,-0.65,-0.4
3.0,146.94,45.06,-8.75,146.94,45.06,-8.75,-0.26,0.35,0.17,0.88,3.0,288.94,-81.31,-111.62,288.94,-81.31,-111.62,-0.56,0.34,-0.64,-0.4
3.0,147.13,45.0,-8.69,147.13,45.0,-8.69,-0.26,0.35,0.16,0.88,3.0,289.44,-81.62,-111.5,289.44,-81.62,-111.5,-0.56,0.33,-0.64,-0.4
3.0,147.31,44.88,-8.75,147.31,44.88,-8.75,-0.26,0.35,0.16,0.88,3.0,289.31,-81.62,-110.69,289.31,-81.62,-110.69,-0.56,0.34,-0.64,-0.4
3.0,147.38,44.94,-8.81,147.38,44.94,-8.81,-0.26,0.35,0.16,0.89,3.0,288.81,-81.31,-113.12,288.81,-81.31,-113.12,-0.56,0.34,-0.65,-0.4
3.0,147.56,45.0,-8.56,147.56,45.0,-8.56,-0.26,0.35,0.16,0.89,3.0,288.44,-80.56,-118.5,288.44,-80.56,-118.5,-0.55,0.34,-0.65,-0.4
3.0,147.63,45.13,-8.19,147.63,45.13,-8.19,-0.26,0.35,0.16,0.89,3.0,288.25,-80.19,-121.19,288.25,-80.19,-121.19,-0.55,0.34,-0.65,-0.4
3.0,147.69,45.19,-8.0,147.69,45.19,-8.0,-0.26,0.36,0.16,0.89,3.0,288.19,-80.12,-122.19,288.19,-80.12,-122.19,-0.55,0.34,-0.65,-0.39
3.0,147.81,45.25,-7.94,147.81,45.25,-7.94,-0.26,0.36,0.16,0.89,3.0,288.5,-80.56,-121.19,288.5,-80.56,-121.19,-0.55,0.34,-0.65,-0.4
3.0,147.88,45.31,-7.75,147.88,45.31,-7.75,-0.25,0.36,0.16,0.89,3.0,289.0,-81.31,-118.06,289.0,-81.31,-118.06,-0.56,0.34,-0.65,-0.4
3.0,147.94,45.44,-7.69,147.94,45.44,-7.69,-0.25,0.36,0.16,0.88,3.0,289.38,-81.87,-114.5,289.38,-81.87,-114.5,-0.56,0.34,-0.64,-0.4
3.0,147.94,45.5,-7.63,147.94,45.5,-7.63,-0.25,0.36,0.16,0.88,3.0,289.75,-82.06,-113.44,289.75,-82.06,-113.44,-0.56,0.34,-0.64,-0.39
3.0,148.0,45.63,-7.63,148.0,45.63,-7.63,-0.25,0.36,0.16,0.88,3.0,290.0,-82.0,-113.62,290.0,-82.0,-113.62,-0.56,0.34,-0.64,-0.39
3.0,147.94,45.69,-7.75,147.94,45.69,-7.75,-0.25,0.36,0.16,0.88,3.0,289.94,-82.37,-111.87,289.94,-82.37,-111.87,-0.56,0.34,-0.64,-0.4
3.0,148.0,45.81,-7.75,148.0,45.81,-7.75,-0.25,0.36,0.16,0.88,3.0,289.88,-82.56,-112.62,289.88,-82.56,-112.62,-0.56,0.34,-0.64,-0.4
3.0,148.0,45.81,-7.69,148.0,45.81,-7.69,-0.25,0.36,0.16,0.88,3.0,289.88,-82.06,-117.19,289.88,-82.06,-117.19,-0.56,0.34,-0.65,-0.39
3.0,148.0,45.81,-7.75,148.0,45.81,-7.75,-0.25,0.36,0.16,0.88,3.0,290.06,-81.44,-122.37,290.06,-81.44,-122.37,-0.56,0.34,-0.65,-0.39
3.0,147.94,45.81,-7.88,147.94,45.81,-7.88,-0.25,0.36,0.16,0.88,3.0,290.63,-81.31,-124.56,290.63,-81.31,-124.56,-0.56,0.34,-0.65,-0.38
3.0,147.88,45.81,-8.0,147.88,45.81,-8.0,-0.25,0.36,0.16,0.88,3.0,291.0,-81.0,-126.62,291.0,-81.0,-126.62,-0.55,0.34,-0.66,-0.38
3.0,147.88,45.81,-8.06,147.88,45.81,-8.06,-0.25,0.36,0.16,0.88,3.0,291.44,-80.75,-127.94,291.44,-80.75,-127.94,-0.55,0.34,-0.66,-0.38
3.0,147.81,45.81,-8.13,147.81,45.81,-8.13,-0.25,0.36,0.16,0.88,3.0,291.69,-80.75,-129.0,291.69,-80.75,-129.0,-0.56,0.34,-0.66,-0.38
3.0,147.81,45.75,-8.31,147.81,45.75,-8.31,-0.25,0.36,0.16,0.88,3.0,291.94,-81.0,-129.0,291.94,-81.0,-129.0,-0.56,0.34,-0.66,-0.38
3.0,147.81,45.75,-8.38,147.81,45.75,-8.38,-0.25,0.36,0.16,0.88,3.0,292.06,-81.31,-128.38,292.06,-81.31,-128.38,-0.56,0.34,-0.66,-0.38
3.0,147.81,45.81,-8.44,147.81,45.81,-8.44,-0.25,0.36,0.16,0.88,3.0,292.13,-81.31,-129.0,292.13,-81.31,-129.0,-0.56,0.34,-0.66,-0.37
3.0,147.75,45.81,-8.56,147.75,45.81,-8.56,-0.25,0.36,0.16,0.88,3.0,292.25,-81.25,-130.38,292.25,-81.25,-130.38,-0.56,0.34,-0.66,-0.37
3.0,147.81,45.75,-8.63,147.81,45.75,-8.63,-0.25,0.36,0.16,0.88,3.0,292.25,-81.31,-131.19,292.25,-81.31,-131.19,-0.56,0.34,-0.66,-0.37
3.0,147.81,45.81,-8.63,147.81,45.81,-8.63,-0.25,0.36,0.16,0.88,3.0,292.31,-81.19,-133.13,292.31,-81.19,-133.13,-0.56,0.34,-0.66,-0.37
3.0,147.81,45.81,-8.69,147.81,45.81,-8.69,-0.25,0.36,0.16,0.88,3.0,292.63,-81.12,-135.0,292.63,-81.12,-135.0,-0.55,0.34,-0.66,-0.37
3.0,147.75,45.81,-8.81,147.75,45.81,-8.81,-0.25,0.36,0.16,0.88,3.0,292.81,-80.75,-136.94,292.81,-80.75,-136.94,-0.55,0.34,-0.67,-0.37
3.0,147.69,45.81,-9.06,147.69,45.81,-9.06,-0.26,0.36,0.17,0.88,3.0,293.0,-79.75,-139.94,293.0,-79.75,-139.94,-0.55,0.34,-0.68,-0.36
3.0,147.69,45.88,-9.19,147.69,45.88,-9.19,-0.26,0.36,0.17,0.88,3.0,293.31,-78.62,-143.13,293.31,-78.62,-143.13,-0.54,0.34,-0.68,-0.35
3.0,147.69,46.0,-9.25,147.69,46.0,-9.25,-0.26,0.36,0.17,0.88,3.0,293.5,-77.75,-145.31,293.5,-77.75,-145.31,-0.54,0.34,-0.69,-0.35
3.0,147.69,46.13,-9.31,147.69,46.13,-9.31,-0.26,0.36,0.17,0.88,3.0,293.56,-77.87,-145.56,293.56,-77.87,-145.56,-0.54,0.34,-0.68,-0.35
3.0,147.69,46.19,-9.38,147.69,46.19,-9.38,-0.25,0.36,0.17,0.88,3.0,293.63,-79.0,-143.75,293.63,-79.0,-143.75,-0.55,0.34,-0.68,-0.36
3.0,147.69,46.31,-9.38,147.69,46.31,-9.38,-0.25,0.36,0.17,0.88,3.0,293.5,-80.37,-140.94,293.5,-80.37,-140.94,-0.55,0.34,-0.67,-0.36
3.0,147.69,46.44,-9.38,147.69,46.44,-9.38,-0.25,0.36,0.17,0.88,3.0,293.31,-81.19,-139.44,293.31,-81.19,-139.44,-0.56,0.35,-0.66,-0.37
3.0,147.69,46.44,-9.44,147.69,46.44,-9.44,-0.25,0.36,0.17,0.88,3.0,293.06,-80.94,-140.06,293.06,-80.94,-140.06,-0.55,0.35,-0.66,-0.36
3.0,147.69,46.44,-9.5,147.69,46.44,-9.5,-0.25,0.36,0.17,0.88,3.0,292.88,-80.12,-142.0,292.88,-80.12,-142.0,-0.55,0.35,-0.67,-0.36
3.0,147.69,46.44,-9.56,147.69,46.44,-9.56,-0.26,0.36,0.17,0.88,3.0,292.81,-79.62,-142.94,292.81,-79.62,-142.94,-0.55,0.35,-0.67,-0.36
3.0,147.63,46.38,-9.63,147.63,46.38,-9.63,-0.26,0.36,0.17,0.88,3.0,293.06,-80.0,-142.13,293.06,-80.0,-142.13,-0.55,0.35,-0.67,-0.36
3.0,147.5,46.38,-9.81,147.5,46.38,-9.81,-0.26,0.36,0.17,0.88,3.0,293.38,-80.87,-139.5,293.38,-80.87,-139.5,-0.56,0.34,-0.66,-0.36
3.0,147.38,46.25,-9.81,147.38,46.25,-9.81,-0.26,0.36,0.17,0.88,3.0,293.5,-80.44,-141.0,293.5,-80.44,-141.0,-0.55,0.34,-0.67,-0.36
3.0,147.25,46.19,-9.56,147.25,46.19,-9.56,-0.26,0.36,0.17,0.88,3.0,293.56,-78.87,-145.5,293.56,-78.87,-145.5,-0.54,0.34,-0.68,-0.36
3.0,147.19,46.25,-9.44,147.19,46.25,-9.44,-0.26,0.36,0.17,0.88,3.0,293.56,-78.81,-147.63,293.56,-78.81,-147.63,-0.54,0.35,-0.68,-0.35
3.0,147.06,46.44,-9.44,147.06,46.44,-9.44,-0.26,0.36,0.17,0.88,3.0,293.38,-79.37,-147.63,293.38,-79.37,-147.63,-0.54,0.35,-0.67,-0.36
3.0,146.94,46.63,-9.56,146.94,46.63,-9.56,-0.26,0.36,0.17,0.88,3.0,293.13,-79.5,-147.63,293.13,-79.5,-147.63,-0.54,0.35,-0.67,-0.36
3.0,146.88,46.75,-9.63,146.88,46.75,-9.63,-0.26,0.36,0.17,0.88,3.0,292.69,-79.19,-148.25,292.69,-79.19,-148.25,-0.54,0.36,-0.67,-0.36
3.0,146.81,46.81,-9.63,146.81,46.81,-9.63,-0.26,0.36,0.17,0.88,3.0,292.75,-78.75,-148.69,292.75,-78.75,-148.69,-0.54,0.36,-0.68,-0.36
3.0,146.81,46.75,-9.75,146.81,46.75,-9.75,-0.26,0.36,0.18,0.88,3.0,292.75,-78.06,-148.88,292.75,-78.06,-148.88,-0.53,0.35,-0.68,-0.36
3.0,146.75,46.69,-9.94,146.75,46.69,-9.94,-0.26,0.36,0.18,0.88,3.0,292.5,-77.56,-148.81,292.5,-77.56,-148.81,-0.53,0.35,-0.68,-0.35
3.0,146.75,46.63,-10.13,146.75,46.63,-10.13,-0.26,0.36,0.18,0.88,3.0,292.19,-77.56,-148.81,292.19,-77.56,-148.81,-0.53,0.35,-0.68,-0.36
3.0,146.69,46.5,-10.19,146.69,46.5,-10.19,-0.26,0.36,0.18,0.88,3.0,292.06,-77.69,-148.81,292.06,-77.69,-148.81,-0.53,0.36,-0.68,-0.36
3.0,146.75,46.56,-10.19,146.75,46.56,-10.19,-0.26,0.36,0.18,0.88,3.0,291.88,-77.62,-148.69,291.88,-77.62,-148.69,-0.53,0.36,-0.68,-0.36
3.0,146.75,46.56,-10.19,146.75,46.56,-10.19,-0.26,0.36,0.18,0.88,3.0,292.19,-77.81,-148.44,292.19,-77.81,-148.44,-0.53,0.35,-0.68,-0.36
3.0,146.81,46.69,-10.19,146.81,46.69,-10.19,-0.26,0.36,0.18,0.88,3.0,292.63,-78.25,-147.56,292.63,-78.25,-147.56,-0.54,0.35,-0.68,-0.36
3.0,146.69,46.69,-10.38,146.69,46.69,-10.38,-0.26,0.36,0.18,0.88,3.0,292.81,-78.31,-146.94,292.81,-78.31,-146.94,-0.54,0.35,-0.68,-0.36
3.0,146.69,46.69,-10.5,146.69,46.69,-10.5,-0.26,0.36,0.18,0.88,3.0,293.06,-78.0,-147.44,293.06,-78.0,-147.44,-0.54,0.35,-0.68,-0.35
3.0,146.75,46.63,-10.56,146.75,46.63,-10.56,-0.26,0.36,0.18,0.88,3.0,293.19,-77.56,-148.19,293.19,-77.56,-148.19,-0.53,0.35,-0.69,-0.35
3.0,146.75,46.63,-10.63,146.75,46.63,-10.63,-0.26,0.36,0.18,0.88,3.0,293.25,-77.12,-148.44,293.25,-77.12,-148.44,-0.53,0.34,-0.69,-0.35
3.0,146.81,46.63,-10.88,146.81,46.63,-10.88,-0.26,0.36,0.18,0.88,3.0,293.44,-77.31,-148.13,293.44,-77.31,-148.13,-0.53,0.34,-0.69,-0.35
3.0,146.81,46.56,-10.94,146.81,46.56,-10.94,-0.26,0.36,0.18,0.88,3.0,293.63,-77.87,-147.31,293.63,-77.87,-147.31,-0.54,0.34,-0.69,-0.35
3.0,146.88,46.44,-10.94,146.88,46.44,-10.94,-0.26,0.36,0.18,0.88,3.0,293.69,-78.37,-146.38,293.69,-78.37,-146.38,-0.54,0.34,-0.68,-0.35
3.0,147.0,46.44,-10.81,147.0,46.44,-10.81,-0.26,0.36,0.18,0.88,3.0,293.63,-79.06,-144.69,293.63,-79.06,-144.69,-0.54,0.34,-0.68,-0.36
3.0,147.13,46.44,-10.63,147.13,46.44,-10.63,-0.26,0.36,0.18,0.88,3.0,293.5,-79.19,-144.5,293.5,-79.19,-144.5,-0.54,0.34,-0.68,-0.36
3.0,147.13,46.5,-10.44,147.13,46.5,-10.44,-0.26,0.36,0.18,0.88,3.0,293.38,-79.19,-144.81,293.38,-79.19,-144.81,-0.54,0.35,-0.68,-0.36
3.0,147.06,46.38,-10.69,147.06,46.38,-10.69,-0.26,0.36,0.18,0.88,3.0,293.31,-79.44,-145.13,293.31,-79.44,-145.13,-0.55,0.35,-0.67,-0.36
3.0,147.06,46.38,-10.94,147.06,46.38,-10.94,-0.26,0.36,0.18,0.88,3.0,293.25,-79.75,-145.06,293.25,-79.75,-145.06,-0.55,0.35,-0.67,-0.36
3.0,147.06,46.44,-10.81,147.06,46.44,-10.81,-0.26,0.36,0.18,0.88,3.0,293.19,-80.12,-144.75,293.19,-80.12,-144.75,-0.55,0.35,-0.67,-0.36
3.0,147.19,46.5,-10.75,147.19,46.5,-10.75,-0.26,0.36,0.18,0.88,3.0,293.25,-80.69,-144.19,293.25,-80.69,-144.19,-0.55,0.35,-0.66,-0.36
3.0,147.19,46.5,-11.0,147.19,46.5,-11.0,-0.26,0.36,0.18,0.88,3.0,293.44,-81.0,-143.75,293.44,-81.0,-143.75,-0.55,0.35,-0.66,-0.36
3.0,147.19,46.5,-11.31,147.19,46.5,-11.31,-0.26,0.36,0.18,0.88,3.0,293.44,-81.25,-143.31,293.44,-81.25,-143.31,-0.55,0.35,-0.66,-0.36
3.0,147.25,46.44,-11.44,147.25,46.44,-11.44,-0.26,0.36,0.18,0.88,3.0,293.5,-81.0,-144.0,293.5,-81.0,-144.0,-0.55,0.35,-0.66,-0.36
3.0,147.25,46.38,-11.63,147.25,46.38,-11.63,-0.26,0.36,0.18,0.88,3.0,293.63,-80.94,-144.69,293.63,-80.94,-144.69,-0.55,0.35,-0.66,-0.36
3.0,147.25,46.31,-11.75,147.25,46.31,-11.75,-0.26,0.36,0.19,0.88,3.0,293.69,-81.06,-145.0,293.69,-81.06,-145.0,-0.55,0.35,-0.66,-0.36
3.0,147.31,46.31,-11.75,147.31,46.31,-11.75,-0.26,0.36,0.18,0.88,3.0,293.81,-81.37,-144.69,293.81,-81.37,-144.69,-0.56,0.35,-0.66,-0.36
3.0,147.38,46.31,-11.69,147.38,46.31,-11.69,-0.26,0.36,0.18,0.88,3.0,293.81,-81.56,-144.31,293.81,-81.56,-144.31,-0.56,0.35,-0.66,-0.36
3.0,147.44,46.38,-11.75,147.44,46.38,-11.75,-0.26,0.36,0.18,0.88,3.0,293.81,-81.69,-144.19,293.81,-81.69,-144.19,-0.56,0.35,-0.66,-0.36
3.0,147.5,46.5,-11.69,147.5,46.5,-11.69,-0.26,0.36,0.18,0.88,3.0,293.81,-81.56,-144.88,293.81,-81.56,-144.88,-0.56,0.35,-0.66,-0.36
3.0,147.5,46.5,-11.69,147.5,46.5,-11.69,-0.26,0.36,0.18,0.88,3.0,293.75,-81.19,-146.31,293.75,-81.19,-146.31,-0.55,0.36,-0.66,-0.36
3.0,147.56,46.5,-11.75,147.56,46.5,-11.75,-0.26,0.36,0.18,0.88,3.0,293.81,-81.06,-147.19,293.81,-81.06,-147.19,-0.55,0.36,-0.66,-0.36
3.0,147.56,46.5,-11.75,147.56,46.5,-11.75,-0.26,0.36,0.18,0.88,3.0,294.0,-81.31,-147.13,294.0,-81.31,-147.13,-0.56,0.36,-0.66,-0.36
3.0,147.56,46.5,-11.75,147.56,46.5,-11.75,-0.26,0.36,0.18,0.88,3.0,294.19,-81.56,-146.25,294.19,-81.56,-146.25,-0.56,0.35,-0.66,-0.36
3.0,147.56,46.5,-11.88,147.56,46.5,-11.88,-0.26,0.36,0.19,0.88,3.0,294.44,-81.81,-145.31,294.44,-81.81,-145.31,-0.56,0.35,-0.66,-0.36
3.0,147.5,46.5,-12.0,147.5,46.5,-12.0,-0.26,0.36,0.19,0.88,3.0,294.63,-81.87,-145.5,294.63,-81.87,-145.5,-0.56,0.35,-0.66,-0.36
3.0,147.5,46.44,-12.06,147.5,46.44,-12.06,-0.26,0.36,0.19,0.88,3.0,294.56,-81.0,-147.81,294.56,-81.0,-147.81,-0.55,0.35,-0.67,-0.35
3.0,147.44,46.5,-12.13,147.44,46.5,-12.13,-0.26,0.36,0.19,0.88,3.0,293.88,-78.44,-151.5,293.88,-78.44,-151.5,-0.53,0.35,-0.69,-0.35
3.0,147.38,46.94,-12.0,147.38,46.94,-12.0,-0.26,0.36,0.19,0.88,3.0,293.13,-74.31,-154.81,293.13,-74.31,-154.81,-0.5,0.35,-0.72,-0.33
3.0,147.19,47.31,-11.44,147.19,47.31,-11.44,-0.26,0.37,0.18,0.88,3.0,292.63,-69.62,-156.31,292.63,-69.62,-156.31,-0.48,0.34,-0.74,-0.32
3.0,147.25,47.31,-11.5,147.25,47.31,-11.5,-0.26,0.37,0.18,0.88,3.0,292.69,-66.75,-157.06,292.69,-66.75,-157.06,-0.47,0.34,-0.75,-0.31
3.0,147.19,47.63,-11.38,147.19,47.63,-11.38,-0.26,0.37,0.18,0.87,3.0,294.5,-66.12,-158.19,294.5,-66.12,-158.19,-0.47,0.32,-0.77,-0.29
3.0,147.19,48.13,-10.88,147.19,48.13,-10.88,-0.26,0.37,0.18,0.87,3.0,298.5,-62.06,-161.88,298.5,-62.06,-161.88,-0.45,0.3,-0.8,-0.26
3.0,147.25,48.06,-11.25,147.25,48.06,-11.25,-0.26,0.37,0.18,0.87,3.0,304.88,-59.25,-166.75,304.88,-59.25,-166.75,-0.44,0.29,-0.82,-0.22
3.0,147.25,47.63,-11.0,147.25,47.63,-11.0,-0.26,0.37,0.18,0.88,3.0,312.63,-55.06,-173.19,312.63,-55.06,-173.19,-0.4,0.29,-0.85,-0.17
3.0,147.06,46.44,-9.94,147.06,46.44,-9.94,-0.26,0.36,0.17,0.88,3.0,324.44,-44.0,-179.94,324.44,-44.0,-179.94,-0.33,0.28,-0.9,-0.09
3.0,146.69,44.06,-7.94,146.69,44.06,-7.94,-0.27,0.34,0.15,0.89,3.0,325.38,-31.62,175.63,325.38,-31.62,175.63,-0.23,0.28,-0.93,-0.03
3.0,145.63,41.56,-4.88,145.63,41.56,-4.88,-0.28,0.32,0.14,0.89,3.0,334.19,-16.06,179.0,334.19,-16.06,179.0,-0.1,0.18,-0.98,-0.02
3.0,145.75,39.44,-7.5,145.75,39.44,-7.5,-0.28,0.3,0.15,0.9,3.0,345.0,-3.38,-178.25,345.0,-3.38,-178.25,-0.01,0.11,-0.99,-0.03
3.0,145.56,38.44,-8.44,145.56,38.44,-8.44,-0.28,0.3,0.16,0.9,3.0,349.88,-1.31,-174.63,349.88,-1.31,-174.63,0.01,0.09,-0.99,-0.05
3.0,146.0,39.13,-8.44,146.0,39.13,-8.44,-0.27,0.31,0.16,0.9,3.0,347.75,4.75,-173.81,347.75,4.75,-173.81,0.06,0.11,-0.99,-0.05
3.0,146.13,39.94,-7.63,146.13,39.94,-7.63,-0.27,0.31,0.15,0.9,3.0,346.19,7.94,-171.88,346.19,7.94,-171.88,0.08,0.12,-0.99,-0.06
3.0,146.06,40.5,-6.75,146.06,40.5,-6.75,-0.27,0.32,0.15,0.9,3.0,346.25,9.5,-169.69,346.25,9.5,-169.69,0.09,0.12,-0.99,-0.08
3.0,146.0,40.81,-6.69,146.0,40.81,-6.69,-0.27,0.32,0.15,0.89,3.0,346.63,10.13,-168.44,346.63,10.13,-168.44,0.1,0.12,-0.98,-0.09
3.0,145.88,41.0,-7.06,145.88,41.0,-7.06,-0.27,0.32,0.15,0.89,3.0,346.69,10.0,-168.81,346.69,10.0,-168.81,0.1,0.11,-0.98,-0.09
3.0,146.13,41.0,-8.19,146.13,41.0,-8.19,-0.27,0.32,0.16,0.89,3.0,346.63,11.44,-170.0,346.63,11.44,-170.0,0.11,0.12,-0.98,-0.07
3.0,146.44,41.06,-9.25,146.44,41.06,-9.25,-0.27,0.32,0.17,0.89,3.0,346.06,12.94,-170.69,346.06,12.94,-170.69,0.12,0.12,-0.98,-0.07
3.0,146.81,41.13,-9.81,146.81,41.13,-9.81,-0.27,0.32,0.17,0.89,3.0,345.94,12.5,-171.13,345.94,12.5,-171.13,0.12,0.12,-0.98,-0.06
3.0,147.38,41.19,-9.56,147.38,41.19,-9.56,-0.26,0.32,0.16,0.9,3.0,345.94,12.5,-171.63,345.94,12.5,-171.63,0.12,0.12,-0.98,-0.05
3.0,147.5,41.19,-9.13,147.5,41.19,-9.13,-0.26,0.32,0.16,0.9,3.0,345.88,12.94,-172.56,345.88,12.94,-172.56,0.12,0.12,-0.98,-0.05
3.0,147.69,41.19,-9.06,147.69,41.19,-9.06,-0.26,0.32,0.16,0.9,3.0,346.0,13.06,-173.25,346.0,13.06,-173.25,0.12,0.12,-0.98,-0.04
3.0,147.88,41.13,-8.88,147.88,41.13,-8.88,-0.26,0.32,0.16,0.9,3.0,346.25,12.38,-173.56,346.25,12.38,-173.56,0.11,0.12,-0.99,-0.04
3.0,148.25,41.13,-8.69,148.25,41.13,-8.69,-0.25,0.32,0.15,0.9,3.0,346.31,11.81,-173.56,346.31,11.81,-173.56,0.11,0.12,-0.99,-0.04
3.0,148.44,40.88,-8.63,148.44,40.88,-8.63,-0.25,0.32,0.15,0.9,3.0,346.25,11.88,-173.25,346.25,11.88,-173.25,0.11,0.12,-0.99,-0.05
3.0,148.63,40.63,-8.69,148.63,40.63,-8.69,-0.25,0.32,0.15,0.9,3.0,346.13,11.88,-172.88,346.13,11.88,-172.88,0.11,0.12,-0.99,-0.05
3.0,148.81,40.56,-8.63,148.81,40.56,-8.63,-0.25,0.32,0.15,0.9,3.0,346.19,11.44,-172.31,346.19,11.44,-172.31,0.11,0.12,-0.99,-0.05
3.0,148.88,40.5,-8.56,148.88,40.5,-8.56,-0.25,0.32,0.15,0.9,3.0,346.25,11.0,-172.0,346.25,11.0,-172.0,0.1,0.12,-0.99,-0.06
3.0,148.94,40.5,-8.75,148.94,40.5,-8.75,-0.25,0.32,0.15,0.9,3.0,346.13,10.81,-171.94,346.13,10.81,-171.94,0.1,0.12,-0.99,-0.06
3.0,148.94,40.63,-9.13,148.94,40.63,-9.13,-0.25,0.32,0.16,0.9,3.0,346.0,11.06,-172.0,346.0,11.06,-172.0,0.11,0.12,-0.99,-0.06
3.0,148.94,40.63,-9.5,148.94,40.63,-9.5,-0.25,0.32,0.16,0.9,3.0,345.69,11.31,-172.13,345.69,11.31,-172.13,0.11,0.12,-0.99,-0.05
3.0,148.94,40.56,-9.81,148.94,40.56,-9.81,-0.25,0.32,0.16,0.9,3.0,345.44,11.31,-172.19,345.44,11.31,-172.19,0.11,0.13,-0.98,-0.05
3.0,149.06,40.38,-10.19,149.06,40.38,-10.19,-0.25,0.31,0.16,0.9,3.0,345.44,11.5,-171.94,345.44,11.5,-171.94,0.11,0.13,-0.98,-0.06
3.0,149.31,40.19,-10.69,149.31,40.19,-10.69,-0.25,0.31,0.16,0.9,3.0,345.25,11.63,-171.63,345.25,11.63,-171.63,0.11,0.13,-0.98,-0.06
3.0,149.44,40.13,-11.19,149.44,40.13,-11.19,-0.25,0.31,0.17,0.9,3.0,345.06,11.81,-171.63,345.06,11.81,-171.63,0.11,0.13,-0.98,-0.06
3.0,149.44,40.06,-11.81,149.44,40.06,-11.81,-0.25,0.31,0.17,0.9,3.0,344.94,12.31,-171.63,344.94,12.31,-171.63,0.12,0.13,-0.98,-0.06
3.0,149.31,40.13,-12.25,149.31,40.13,-12.25,-0.25,0.31,0.18,0.9,3.0,344.75,12.44,-171.69,344.75,12.44,-171.69,0.12,0.13,-0.98,-0.06
3.0,149.31,40.19,-12.56,149.31,40.19,-12.56,-0.25,0.31,0.18,0.9,3.0,344.56,12.19,-171.81,344.56,12.19,-171.81,0.12,0.13,-0.98,-0.05
3.0,149.31,40.06,-12.94,149.31,40.06,-12.94,-0.25,0.31,0.18,0.9,3.0,344.56,11.81,-171.94,344.56,11.81,-171.94,0.11,0.13,-0.98,-0.05
3.0,149.44,39.88,-13.25,149.44,39.88,-13.25,-0.25,0.31,0.18,0.9,3.0,344.56,11.44,-171.88,344.56,11.44,-171.88,0.11,0.13,-0.98,-0.06
3.0,149.56,39.69,-13.44,149.56,39.69,-13.44,-0.24,0.3,0.18,0.9,3.0,344.56,10.81,-171.75,344.56,10.81,-171.75,0.1,0.13,-0.98,-0.06
3.0,149.63,39.56,-13.56,149.63,39.56,-13.56,-0.24,0.3,0.18,0.9,3.0,344.44,10.38,-171.5,344.44,10.38,-171.5,0.1,0.14,-0.98,-0.06
3.0,149.63,39.56,-13.63,149.63,39.56,-13.63,-0.24,0.3,0.18,0.9,3.0,344.25,10.06,-171.56,344.25,10.06,-171.56,0.1,0.14,-0.98,-0.06
3.0,149.63,39.63,-13.69,149.63,39.63,-13.69,-0.24,0.3,0.18,0.9,3.0,343.94,9.81,-171.69,343.94,9.81,-171.69,0.09,0.14,-0.98,-0.06
