Calibration_1,AccX_1,AccY_1,AccZ_1,Roll_1,Pitch_1,Yaw_1,QuatW_1,QuatX_1,QuatY_1,QuatZ_1,Calibration_2,AccX_2,AccY_2,AccZ_2,Roll_2,Pitch_2,Yaw_2,QuatW_2,QuatX_2,QuatY_2,QuatZ_2
0.0,356.94,34.44,120.5,356.94,34.44,120.5,0.54,-0.64,-0.54,0.01,0.0,0.0,0.0,0.0,0.0,0.0,0.0,0.0,0.0,0.0,0.0
0.0,356.88,34.44,120.69,356.88,34.44,120.69,0.54,-0.64,-0.54,0.01,0.0,359.81,0.37,-0.37,359.81,0.37,-0.37,1.0,0.0,-0.0,0.0
0.0,356.94,34.44,120.75,356.94,34.44,120.75,0.54,-0.64,-0.54,0.01,0.0,359.63,0.44,-0.5,359.63,0.44,-0.5,1.0,0.0,-0.0,0.0
0.0,356.94,34.44,120.94,356.94,34.44,120.94,0.54,-0.65,-0.54,0.01,0.0,359.5,0.19,-0.5,359.5,0.19,-0.5,1.0,0.0,-0.0,0.0
0.0,357.0,34.44,121.06,357.0,34.44,121.06,0.54,-0.64,-0.54,0.01,0.0,359.5,0.06,-0.44,359.5,0.06,-0.44,1.0,0.0,-0.0,0.0
0.0,357.06,34.63,120.75,357.06,34.63,120.75,0.54,-0.64,-0.55,0.01,0.0,359.44,36.56,-46.88,359.44,36.56,-46.88,0.88,0.33,-0.34,0.0
0.0,357.25,34.88,120.69,357.25,34.88,120.69,0.54,-0.64,-0.55,0.01,0.0,359.31,36.44,-46.63,359.31,36.44,-46.63,0.88,0.33,-0.34,0.01
0.0,357.38,34.88,120.81,357.38,34.88,120.81,0.54,-0.64,-0.55,0.01,0.0,359.25,36.44,-46.5,359.25,36.44,-46.5,0.88,0.33,-0.34,0.01
0.0,357.56,35.0,120.81,357.56,35.0,120.81,0.54,-0.64,-0.55,0.01,0.0,359.38,36.44,-46.63,359.38,36.44,-46.63,0.88,0.33,-0.34,0.0
0.0,357.75,35.19,120.75,357.75,35.19,120.75,0.54,-0.64,-0.55,0.01,0.0,359.38,36.44,-46.63,359.38,36.44,-46.63,0.88,0.33,-0.34,0.0
0.0,357.88,35.19,120.87,357.88,35.19,120.87,0.54,-0.64,-0.55,0.01,0.0,359.31,36.44,-46.56,359.31,36.44,-46.56,0.88,0.33,-0.34,0.0
0.0,357.94,35.19,120.94,357.94,35.19,120.94,0.54,-0.64,-0.55,0.01,0.0,359.38,36.44,-46.56,359.38,36.44,-46.56,0.88,0.33,-0.34,0.0
0.0,357.88,35.38,120.62,357.88,35.38,120.62,0.54,-0.64,-0.55,0.01,0.0,359.38,36.44,-46.63,359.38,36.44,-46.63,0.88,0.33,-0.34,0.0
0.0,357.88,35.5,120.44,357.88,35.5,120.44,0.54,-0.64,-0.55,0.01,0.0,359.38,36.38,-46.44,359.38,36.38,-46.44,0.88,0.33,-0.34,0.0
0.0,357.88,35.38,120.62,357.88,35.38,120.62,0.54,-0.64,-0.55,0.01,0.0,359.38,36.38,-46.38,359.38,36.38,-46.38,0.88,0.33,-0.33,0.0
0.0,357.88,35.38,120.62,357.88,35.38,120.62,0.54,-0.64,-0.55,0.01,0.0,359.44,36.44,-46.56,359.44,36.44,-46.56,0.88,0.33,-0.34,0.0
0.0,357.75,35.5,120.37,357.75,35.5,120.37,0.54,-0.64,-0.55,0.01,0.0,359.5,36.5,-46.63,359.5,36.5,-46.63,0.88,0.33,-0.34,0.0
0.0,357.88,35.5,120.5,357.88,35.5,120.5,0.54,-0.64,-0.55,0.01,0.0,359.38,36.5,-46.56,359.38,36.5,-46.56,0.88,0.33,-0.34,0.0
0.0,358.0,35.44,120.75,358.0,35.44,120.75,0.54,-0.64,-0.55,0.01,0.0,359.38,36.5,-46.56,359.38,36.5,-46.56,0.88,0.33,-0.34,0.0
0.0,358.0,35.56,120.56,358.0,35.56,120.56,0.54,-0.64,-0.55,0.01,0.0,359.44,36.5,-46.63,359.44,36.5,-46.63,0.88,0.33,-0.34,0.0
0.0,357.94,35.63,120.37,357.94,35.63,120.37,0.54,-0.64,-0.55,0.01,0.0,359.38,36.5,-46.63,359.38,36.5,-46.63,0.88,0.33,-0.34,0.0
0.0,357.81,35.56,120.44,357.81,35.56,120.44,0.54,-0.64,-0.55,0.01,0.0,359.31,36.5,-46.63,359.31,36.5,-46.63,0.88,0.33,-0.34,0.01
0.0,357.5,35.44,120.31,357.5,35.44,120.31,0.54,-0.64,-0.55,0.01,0.0,359.38,36.5,-46.69,359.38,36.5,-46.69,0.88,0.33,-0.34,0.0
0.0,357.38,35.44,120.19,357.38,35.44,120.19,0.54,-0.64,-0.55,0.01,0.0,359.44,36.56,-46.69,359.44,36.56,-46.69,0.88,0.33,-0.34,0.0
0.0,357.13,35.25,120.25,357.13,35.25,120.25,0.54,-0.64,-0.55,0.01,0.0,359.38,36.5,-46.56,359.38,36.5,-46.56,0.88,0.33,-0.34,0.0
0.0,357.06,35.31,120.12,357.06,35.31,120.12,0.54,-0.64,-0.55,0.01,0.0,359.38,36.5,-46.5,359.38,36.5,-46.5,0.88,0.33,-0.34,0.0
0.0,356.88,35.31,119.87,356.88,35.31,119.87,0.54,-0.63,-0.55,0.02,0.0,359.5,36.5,-46.56,359.5,36.5,-46.56,0.88,0.33,-0.34,0.0
0.0,356.44,35.06,119.81,356.44,35.06,119.81,0.54,-0.64,-0.55,0.02,0.0,359.5,36.5,-46.5,359.5,36.5,-46.5,0.88,0.33,-0.34,0.0
0.0,356.19,34.88,119.81,356.19,34.88,119.81,0.54,-0.64,-0.55,0.02,0.0,359.44,36.5,-46.44,359.44,36.5,-46.44,0.88,0.33,-0.34,0.0
0.0,356.0,35.0,119.5,356.0,35.0,119.5,0.55,-0.63,-0.55,0.02,0.0,359.56,36.5,-46.56,359.56,36.5,-46.56,0.88,0.33,-0.34,0.0
0.0,355.94,35.0,119.37,355.94,35.0,119.37,0.55,-0.63,-0.55,0.02,0.0,359.56,36.56,-46.56,359.56,36.56,-46.56,0.88,0.33,-0.34,0.0
0.0,355.19,34.5,119.5,355.19,34.5,119.5,0.54,-0.64,-0.55,0.02,0.0,359.5,36.5,-46.38,359.5,36.5,-46.38,0.88,0.33,-0.34,0.0
0.0,354.38,34.06,119.19,354.38,34.06,119.19,0.55,-0.64,-0.54,0.03,0.0,359.56,36.63,-46.38,359.56,36.63,-46.38,0.88,0.33,-0.34,0.0
0.0,353.31,33.63,117.87,353.31,33.63,117.87,0.55,-0.63,-0.54,0.03,0.0,359.5,36.75,-46.06,359.5,36.75,-46.06,0.88,0.33,-0.34,0.01
0.0,350.13,32.31,115.87,350.13,32.31,115.87,0.56,-0.63,-0.53,0.05,0.0,357.94,37.06,-43.44,357.94,37.06,-43.44,0.89,0.31,-0.34,0.02
0.0,347.63,32.13,115.75,347.63,32.13,115.75,0.56,-0.62,-0.55,0.07,0.0,359.63,37.88,-43.19,359.63,37.88,-43.19,0.88,0.31,-0.35,-0.01
0.0,342.31,29.0,116.25,342.31,29.0,116.25,0.54,-0.63,-0.54,0.09,0.0,5.94,38.56,-46.63,5.94,38.56,-46.63,0.87,0.3,-0.38,-0.06
0.0,340.06,28.0,116.5,340.06,28.0,116.5,0.54,-0.63,-0.54,0.1,0.0,10.13,40.5,-47.56,10.13,40.5,-47.56,0.86,0.28,-0.41,-0.08
0.0,338.69,27.81,115.25,338.69,27.81,115.25,0.55,-0.62,-0.55,0.1,0.0,10.5,43.31,-48.69,10.5,43.31,-48.69,0.85,0.28,-0.43,-0.08
0.0,340.63,30.5,114.44,340.63,30.5,114.44,0.56,-0.6,-0.56,0.09,0.0,11.44,45.81,-51.25,11.44,45.81,-51.25,0.84,0.28,-0.46,-0.09
0.0,345.69,33.06,117.19,345.69,33.06,117.19,0.54,-0.61,-0.57,0.06,0.0,14.31,47.63,-54.63,14.31,47.63,-54.63,0.82,0.27,-0.49,-0.11
0.0,352.31,34.56,122.12,352.31,34.56,122.12,0.53,-0.62,-0.58,0.02,0.0,16.25,48.56,-56.69,16.25,48.56,-56.69,0.82,0.27,-0.5,-0.12
0.0,1.63,39.25,124.44,1.63,39.25,124.44,0.53,-0.61,-0.59,-0.01,0.0,17.12,48.56,-56.75,17.12,48.56,-56.75,0.82,0.26,-0.5,-0.13
0.0,9.19,45.75,123.25,9.19,45.75,123.25,0.55,-0.57,-0.6,-0.04,0.0,19.31,47.44,-56.44,19.31,47.44,-56.44,0.82,0.26,-0.5,-0.14
0.0,18.31,52.0,124.44,18.31,52.0,124.44,0.56,-0.55,-0.61,-0.09,0.0,23.31,44.38,-55.19,23.31,44.38,-55.19,0.82,0.26,-0.48,-0.17
0.0,32.75,57.19,129.19,32.75,57.19,129.19,0.55,-0.56,-0.6,-0.16,0.0,24.75,39.63,-49.56,24.75,39.63,-49.56,0.85,0.25,-0.43,-0.19
0.0,40.19,58.13,132.0,40.19,58.13,132.0,0.53,-0.58,-0.58,-0.2,0.0,23.19,36.13,-45.31,23.19,36.13,-45.31,0.88,0.25,-0.37,-0.17
0.0,42.19,58.75,134.25,42.19,58.75,134.25,0.52,-0.58,-0.59,-0.2,0.0,20.44,30.06,-40.75,20.44,30.06,-40.75,0.9,0.26,-0.31,-0.16
0.0,39.94,56.0,137.13,39.94,56.0,137.13,0.5,-0.6,-0.6,-0.17,0.0,18.31,23.69,-38.75,18.31,23.69,-38.75,0.92,0.28,-0.25,-0.14
0.0,30.37,49.5,139.19,30.37,49.5,139.19,0.48,-0.61,-0.63,-0.12,0.0,15.06,18.94,-38.69,15.06,18.94,-38.69,0.93,0.3,-0.2,-0.11
0.0,25.94,45.44,141.56,25.94,45.44,141.56,0.46,-0.62,-0.63,-0.11,0.0,11.19,16.31,-39.13,11.19,16.31,-39.13,0.93,0.31,-0.17,-0.08
0.0,25.5,42.75,142.56,25.5,42.75,142.56,0.44,-0.65,-0.61,-0.09,0.0,5.13,15.88,-40.13,5.13,15.88,-40.13,0.93,0.33,-0.16,-0.03
0.0,19.56,40.13,139.5,19.56,40.13,139.5,0.46,-0.65,-0.6,-0.07,0.0,359.19,17.62,-42.81,359.19,17.62,-42.81,0.92,0.36,-0.17,0.02
0.0,14.0,41.19,134.06,14.0,41.19,134.06,0.5,-0.62,-0.6,-0.05,0.0,354.81,21.5,-45.0,354.81,21.5,-45.0,0.91,0.37,-0.2,0.04
0.0,6.56,43.25,125.69,6.56,43.25,125.69,0.55,-0.57,-0.61,-0.02,0.0,354.0,25.25,-46.25,354.0,25.25,-46.25,0.9,0.38,-0.23,0.05
0.0,0.44,43.88,118.56,0.44,43.88,118.56,0.58,-0.55,-0.6,0.01,0.0,352.06,28.56,-48.5,352.06,28.56,-48.5,0.88,0.39,-0.25,0.07
0.0,355.44,41.44,115.81,355.44,41.44,115.81,0.58,-0.56,-0.59,0.03,0.0,345.63,31.5,-48.31,345.63,31.5,-48.31,0.88,0.39,-0.25,0.11
0.0,348.44,39.06,111.69,348.44,39.06,111.69,0.6,-0.54,-0.58,0.07,0.0,335.63,35.38,-44.25,335.63,35.38,-44.25,0.87,0.38,-0.25,0.19
0.0,342.31,38.13,106.94,342.31,38.13,106.94,0.62,-0.51,-0.59,0.1,0.0,327.0,40.44,-38.94,327.0,40.44,-38.94,0.86,0.36,-0.27,0.25
0.0,341.06,38.31,106.62,341.06,38.31,106.62,0.61,-0.51,-0.59,0.1,0.0,323.56,46.63,-34.13,323.56,46.63,-34.13,0.84,0.33,-0.32,0.28
0.0,338.13,35.0,110.44,338.13,35.0,110.44,0.58,-0.55,-0.6,0.12,0.0,327.69,53.88,-37.13,327.69,53.88,-37.13,0.82,0.33,-0.4,0.24
0.0,337.31,33.75,113.62,337.31,33.75,113.62,0.56,-0.55,-0.61,0.11,0.0,333.31,60.19,-48.19,333.31,60.19,-48.19,0.79,0.34,-0.47,0.19
0.0,339.44,34.69,117.06,339.44,34.69,117.06,0.54,-0.56,-0.62,0.1,0.0,336.63,63.06,-53.94,336.63,63.06,-53.94,0.78,0.34,-0.5,0.16
0.0,341.5,34.38,120.37,341.5,34.38,120.37,0.53,-0.56,-0.63,0.08,0.0,336.81,65.31,-52.94,336.81,65.31,-52.94,0.77,0.32,-0.52,0.16
0.0,347.44,37.25,122.44,347.44,37.25,122.44,0.53,-0.56,-0.63,0.06,0.0,336.75,67.19,-54.56,336.75,67.19,-54.56,0.76,0.32,-0.55,0.15
0.0,356.5,41.5,124.06,356.5,41.5,124.06,0.54,-0.56,-0.63,-0.0,0.0,340.31,68.94,-67.62,340.31,68.94,-67.62,0.74,0.32,-0.57,0.13
0.0,8.31,46.75,125.44,8.31,46.75,125.44,0.55,-0.56,-0.62,-0.04,0.0,343.75,67.94,-77.12,343.75,67.94,-77.12,0.72,0.34,-0.59,0.09
0.0,15.88,50.25,124.37,15.88,50.25,124.37,0.56,-0.56,-0.61,-0.08,0.0,350.38,64.94,-82.44,350.38,64.94,-82.44,0.73,0.34,-0.6,0.04
0.0,19.31,52.56,119.37,19.31,52.56,119.37,0.58,-0.55,-0.59,-0.1,0.0,358.06,61.31,-81.0,358.06,61.31,-81.0,0.74,0.33,-0.59,-0.0
0.0,29.0,60.19,113.87,29.0,60.19,113.87,0.61,-0.52,-0.57,-0.16,0.0,5.56,57.0,-78.19,5.56,57.0,-78.19,0.75,0.33,-0.57,-0.05
0.0,37.44,65.0,111.12,37.44,65.0,111.12,0.62,-0.51,-0.56,-0.21,0.0,12.19,52.19,-77.37,12.19,52.19,-77.37,0.75,0.34,-0.56,-0.09
0.0,40.56,65.0,112.81,40.56,65.0,112.81,0.6,-0.53,-0.55,-0.23,0.0,16.44,48.75,-75.31,16.44,48.75,-75.31,0.76,0.34,-0.55,-0.11
0.0,45.81,65.25,115.94,45.81,65.25,115.94,0.59,-0.55,-0.54,-0.26,0.0,19.81,45.94,-73.87,19.81,45.94,-73.87,0.76,0.35,-0.53,-0.13
0.0,51.81,68.56,117.25,51.81,68.56,117.25,0.58,-0.54,-0.54,-0.29,0.0,23.12,42.94,-72.94,23.12,42.94,-72.94,0.76,0.35,-0.52,-0.16
0.0,55.75,71.37,120.5,55.75,71.37,120.5,0.57,-0.53,-0.55,-0.3,0.0,25.69,39.5,-72.0,25.69,39.5,-72.0,0.77,0.36,-0.5,-0.18
0.0,54.13,67.69,125.94,54.13,67.69,125.94,0.55,-0.57,-0.55,-0.28,0.0,26.81,36.88,-70.5,26.81,36.88,-70.5,0.77,0.37,-0.48,-0.18
0.0,52.44,63.5,129.88,52.44,63.5,129.88,0.53,-0.6,-0.54,-0.25,0.0,27.69,34.13,-67.56,27.69,34.13,-67.56,0.79,0.38,-0.45,-0.19
0.0,43.19,55.31,131.0,43.19,55.31,131.0,0.51,-0.64,-0.54,-0.18,0.0,27.12,32.0,-64.44,27.12,32.0,-64.44,0.8,0.37,-0.42,-0.19
0.0,31.81,47.13,131.75,31.81,47.13,131.75,0.5,-0.66,-0.54,-0.12,0.0,27.19,30.5,-63.0,27.19,30.5,-63.0,0.82,0.38,-0.39,-0.19
0.0,19.69,41.38,129.88,19.69,41.38,129.88,0.51,-0.67,-0.54,-0.07,0.0,24.31,28.12,-59.19,24.31,28.12,-59.19,0.84,0.38,-0.35,-0.17
0.0,6.81,36.94,125.56,6.81,36.94,125.56,0.52,-0.66,-0.54,-0.01,0.0,20.44,25.19,-57.13,20.44,25.19,-57.13,0.85,0.4,-0.31,-0.15
0.0,352.5,31.44,121.19,352.5,31.44,121.19,0.53,-0.66,-0.53,0.06,0.0,17.0,22.5,-58.06,17.0,22.5,-58.06,0.86,0.42,-0.28,-0.11
0.0,339.81,26.56,115.62,339.81,26.56,115.62,0.55,-0.64,-0.52,0.11,0.0,8.38,22.44,-57.31,8.38,22.44,-57.31,0.87,0.44,-0.24,-0.03
0.0,331.69,24.44,109.19,331.69,24.44,109.19,0.58,-0.61,-0.52,0.16,0.0,356.94,24.81,-56.19,356.94,24.81,-56.19,0.87,0.44,-0.23,0.05
0.0,327.56,24.5,103.87,327.56,24.5,103.87,0.61,-0.58,-0.52,0.18,0.0,347.69,29.44,-55.19,347.69,29.44,-55.19,0.86,0.44,-0.25,0.11
0.0,325.69,24.87,102.25,325.69,24.87,102.25,0.6,-0.57,-0.53,0.19,0.0,344.44,35.56,-55.5,344.44,35.56,-55.5,0.84,0.43,-0.3,0.12
0.0,323.38,23.75,103.94,323.38,23.75,103.94,0.59,-0.58,-0.53,0.2,0.0,344.56,42.06,-57.81,344.56,42.06,-57.81,0.82,0.42,-0.37,0.1
0.0,322.75,23.37,106.56,322.75,23.37,106.56,0.57,-0.58,-0.55,0.19,0.0,347.56,45.56,-60.94,347.56,45.56,-60.94,0.81,0.42,-0.41,0.09
0.0,323.56,25.0,108.25,323.56,25.0,108.25,0.57,-0.57,-0.56,0.19,0.0,345.5,49.5,-60.56,345.5,49.5,-60.56,0.81,0.4,-0.43,0.11
0.0,325.06,26.75,111.75,325.06,26.75,111.75,0.55,-0.57,-0.59,0.17,0.0,342.31,52.88,-55.88,342.31,52.88,-55.88,0.81,0.37,-0.44,0.13
0.0,328.13,27.81,117.06,328.13,27.81,117.06,0.53,-0.57,-0.61,0.15,0.0,339.75,56.25,-51.81,339.75,56.25,-51.81,0.8,0.34,-0.46,0.15
0.0,334.19,30.06,123.0,334.19,30.06,123.0,0.5,-0.58,-0.63,0.11,0.0,340.06,59.31,-51.38,340.06,59.31,-51.38,0.8,0.33,-0.49,0.14
0.0,342.5,32.5,128.19,342.5,32.5,128.19,0.48,-0.59,-0.65,0.07,0.0,341.63,61.81,-51.38,341.63,61.81,-51.38,0.79,0.31,-0.5,0.13
0.0,349.5,35.56,131.0,349.5,35.56,131.0,0.48,-0.58,-0.66,0.04,0.0,343.44,63.81,-54.0,343.44,63.81,-54.0,0.79,0.3,-0.53,0.11
0.0,357.44,38.94,133.06,357.44,38.94,133.06,0.48,-0.57,-0.66,0.01,0.0,346.06,64.44,-58.06,346.06,64.44,-58.06,0.78,0.3,-0.54,0.09
0.0,3.75,41.13,133.81,3.75,41.13,133.81,0.49,-0.58,-0.65,-0.03,0.0,350.25,63.0,-62.56,350.25,63.0,-62.56,0.77,0.31,-0.55,0.07
0.0,15.75,46.5,133.44,15.75,46.5,133.44,0.52,-0.58,-0.62,-0.09,0.0,354.44,61.31,-70.37,354.44,61.31,-70.37,0.75,0.33,-0.57,0.02
0.0,25.56,51.63,130.13,25.56,51.63,130.13,0.54,-0.58,-0.59,-0.13,0.0,1.56,57.88,-80.69,1.56,57.88,-80.69,0.73,0.35,-0.58,-0.02
0.0,29.06,54.44,121.62,29.06,54.44,121.62,0.59,-0.57,-0.55,-0.16,0.0,6.56,54.94,-82.75,6.56,54.94,-82.75,0.73,0.36,-0.58,-0.05
0.0,37.0,63.25,107.25,37.0,63.25,107.25,0.64,-0.51,-0.53,-0.23,0.0,160.31,52.44,-80.81,160.31,52.44,-80.81,0.12,-0.45,-0.5,-0.73
0.0,41.81,65.31,91.94,41.81,65.31,91.94,0.65,-0.51,-0.5,-0.26,0.0,162.19,49.69,-81.94,162.19,49.69,-81.94,0.11,-0.44,-0.51,-0.73
0.0,45.19,64.87,98.81,45.19,64.87,98.81,0.62,-0.55,-0.49,-0.26,0.0,165.88,47.13,-83.12,165.88,47.13,-83.12,0.08,-0.44,-0.52,-0.73
0.0,48.56,64.0,101.75,48.56,64.0,101.75,0.61,-0.55,-0.48,-0.3,0.0,170.38,44.38,-81.69,170.38,44.38,-81.69,0.06,-0.43,-0.51,-0.74
0.0,55.5,69.69,95.12,55.5,69.69,95.12,0.62,-0.53,-0.48,-0.33,0.0,172.75,42.06,-79.0,172.75,42.06,-79.0,0.04,-0.4,-0.51,-0.76
0.0,55.94,68.62,100.19,55.94,68.62,100.19,0.59,-0.57,-0.48,-0.31,0.0,173.88,39.75,-75.12,173.88,39.75,-75.12,0.04,-0.38,-0.5,-0.78
0.0,53.88,61.63,114.31,53.88,61.63,114.31,0.55,-0.64,-0.46,-0.27,0.0,173.5,37.31,-70.31,173.5,37.31,-70.31,0.05,-0.34,-0.49,-0.8
0.0,48.75,53.31,122.31,48.75,53.31,122.31,0.52,-0.69,-0.45,-0.22,0.0,170.06,34.75,-64.0,170.06,34.75,-64.0,0.08,-0.29,-0.47,-0.83
0.0,40.44,47.06,125.44,40.44,47.06,125.44,0.51,-0.71,-0.45,-0.17,0.0,167.38,30.56,-58.69,167.38,30.56,-58.69,0.1,-0.23,-0.45,-0.85
0.0,28.81,40.63,125.87,28.81,40.63,125.87,0.51,-0.72,-0.45,-0.11,0.0,162.25,25.81,-52.06,162.25,25.81,-52.06,0.16,-0.16,-0.43,-0.87
0.0,14.44,33.69,124.37,14.44,33.69,124.37,0.51,-0.73,-0.45,-0.05,0.0,149.63,22.94,-47.63,149.63,22.94,-47.63,0.27,-0.09,-0.42,-0.86
0.0,1.75,27.69,121.94,1.75,27.69,121.94,0.52,-0.73,-0.44,0.01,0.0,136.75,22.44,-45.69,136.75,22.44,-45.69,0.36,-0.06,-0.42,-0.83
0.0,349.75,23.62,115.87,349.75,23.62,115.87,0.56,-0.71,-0.43,0.07,0.0,129.25,28.0,-46.25,129.25,28.0,-46.25,0.39,-0.11,-0.45,-0.8
0.0,341.31,21.87,106.62,341.31,21.87,106.62,0.62,-0.65,-0.42,0.11,0.0,128.06,36.88,-52.0,128.06,36.88,-52.0,0.37,-0.17,-0.5,-0.76
0.0,337.69,22.37,95.31,337.69,22.37,95.31,0.67,-0.6,-0.4,0.14,0.0,127.56,42.31,-62.69,127.56,42.31,-62.69,0.36,-0.19,-0.54,-0.73
0.0,330.25,18.12,93.75,330.25,18.12,93.75,0.65,-0.62,-0.4,0.19,0.0,123.62,43.69,-68.19,123.62,43.69,-68.19,0.38,-0.18,-0.58,-0.7
0.0,322.31,13.5,97.44,322.31,13.5,97.44,0.63,-0.63,-0.4,0.21,0.0,116.56,45.75,-65.31,116.56,45.75,-65.31,0.42,-0.17,-0.57,-0.68
0.0,316.88,12.5,97.56,316.88,12.5,97.56,0.61,-0.62,-0.42,0.24,3.0,112.56,48.5,-65.0,112.56,48.5,-65.0,0.44,-0.18,-0.57,-0.67
0.0,315.75,14.19,97.5,315.75,14.19,97.5,0.61,-0.6,-0.45,0.25,3.0,111.0,51.56,-65.25,111.0,51.56,-65.25,0.45,-0.21,-0.57,-0.65
0.0,316.69,16.25,101.25,316.69,16.25,101.25,0.59,-0.61,-0.48,0.24,3.0,108.87,55.38,-62.19,108.87,55.38,-62.19,0.46,-0.24,-0.56,-0.65
0.0,322.0,19.5,110.06,322.0,19.5,110.06,0.55,-0.63,-0.52,0.19,3.0,110.19,58.0,-58.19,110.19,58.0,-58.19,0.46,-0.27,-0.53,-0.66
0.0,330.19,21.12,119.19,330.19,21.12,119.19,0.5,-0.66,-0.53,0.13,3.0,112.5,59.56,-59.69,112.5,59.56,-59.69,0.43,-0.31,-0.54,-0.66
0.0,343.94,26.25,122.62,343.94,26.25,122.62,0.5,-0.67,-0.54,0.07,3.0,115.69,62.38,-68.75,115.69,62.38,-68.75,0.4,-0.35,-0.55,-0.64
0.0,1.63,35.19,120.87,1.63,35.19,120.87,0.54,-0.66,-0.53,-0.01,3.0,120.37,63.13,-76.12,120.37,63.13,-76.12,0.35,-0.38,-0.56,-0.65
0.0,14.69,42.69,117.37,14.69,42.69,117.37,0.58,-0.63,-0.5,-0.11,3.0,129.56,58.5,-85.94,129.56,58.5,-85.94,0.29,-0.38,-0.59,-0.65
0.0,27.75,50.19,110.06,27.75,50.19,110.06,0.62,-0.61,-0.47,-0.16,3.0,139.0,52.19,-91.62,139.0,52.19,-91.62,0.23,-0.37,-0.61,-0.66
0.0,35.19,55.94,102.12,35.19,55.94,102.12,0.64,-0.56,-0.47,-0.23,3.0,147.88,46.38,-91.25,147.88,46.38,-91.25,0.18,-0.35,-0.61,-0.68
0.0,44.75,63.13,91.0,44.75,63.13,91.0,0.65,-0.53,-0.46,-0.28,3.0,155.44,40.88,-87.75,155.44,40.88,-87.75,0.14,-0.32,-0.62,-0.71
0.0,49.94,65.56,83.5,49.94,65.56,83.5,0.66,-0.52,-0.45,-0.31,3.0,162.44,34.56,-88.25,162.44,34.56,-88.25,0.1,-0.3,-0.63,-0.71
0.0,53.38,67.12,78.5,53.38,67.12,78.5,0.65,-0.51,-0.44,-0.34,3.0,164.44,31.87,-89.25,164.44,31.87,-89.25,0.1,-0.29,-0.64,-0.7
0.0,56.0,68.31,76.56,56.0,68.31,76.56,0.65,-0.51,-0.44,-0.35,3.0,161.75,33.06,-88.5,161.75,33.06,-88.5,0.11,-0.28,-0.64,-0.71
0.0,60.06,71.69,75.69,60.06,71.69,75.69,0.63,-0.5,-0.47,-0.37,3.0,160.13,33.94,-90.0,160.13,33.94,-90.0,0.12,-0.29,-0.65,-0.7
0.0,59.31,72.87,95.0,59.31,72.87,95.0,0.59,-0.55,-0.5,-0.33,3.0,159.56,34.5,-91.5,159.56,34.5,-91.5,0.12,-0.29,-0.65,-0.69
0.0,56.56,63.5,124.31,56.56,63.5,124.31,0.51,-0.65,-0.49,-0.28,3.0,159.13,34.75,-91.37,159.13,34.75,-91.37,0.13,-0.29,-0.65,-0.69
0.0,63.13,55.25,139.06,63.13,55.25,139.06,0.43,-0.71,-0.47,-0.28,3.0,160.44,33.75,-91.12,160.44,33.75,-91.12,0.12,-0.29,-0.65,-0.69
0.0,66.12,51.69,146.94,66.12,51.69,146.94,0.4,-0.73,-0.49,-0.25,3.0,163.19,31.81,-91.56,163.19,31.81,-91.56,0.1,-0.28,-0.66,-0.69
0.0,61.69,47.75,149.63,61.69,47.75,149.63,0.39,-0.73,-0.51,-0.23,3.0,163.88,31.12,-89.94,163.88,31.12,-89.94,0.1,-0.28,-0.65,-0.7
0.0,62.31,46.13,151.94,62.31,46.13,151.94,0.37,-0.74,-0.51,-0.23,3.0,157.81,32.63,-84.81,157.81,32.63,-84.81,0.14,-0.25,-0.63,-0.72
0.0,60.69,44.31,151.13,60.69,44.31,151.13,0.38,-0.76,-0.49,-0.21,3.0,143.81,36.69,-77.19,143.81,36.69,-77.19,0.24,-0.21,-0.61,-0.73
0.0,57.75,43.56,146.94,57.75,43.56,146.94,0.4,-0.76,-0.46,-0.22,3.0,136.31,36.63,-70.81,136.31,36.63,-70.81,0.3,-0.17,-0.58,-0.74
0.0,50.13,47.56,136.0,50.13,47.56,136.0,0.5,-0.7,-0.47,-0.21,3.0,132.56,34.75,-65.69,132.56,34.75,-65.69,0.33,-0.14,-0.56,-0.75
0.0,38.31,54.81,113.25,38.31,54.81,113.25,0.63,-0.56,-0.49,-0.22,3.0,130.38,32.06,-61.19,130.38,32.06,-61.19,0.38,-0.09,-0.52,-0.76
0.0,43.88,67.37,80.25,43.88,67.37,80.25,0.69,-0.47,-0.47,-0.28,3.0,121.31,29.31,-52.25,121.31,29.31,-52.25,0.45,-0.03,-0.46,-0.76
0.0,39.75,60.31,79.75,39.75,60.31,79.75,0.68,-0.54,-0.43,-0.23,3.0,115.5,24.31,-45.69,115.5,24.31,-45.69,0.49,0.01,-0.41,-0.76
0.0,34.88,52.5,90.06,34.88,52.5,90.06,0.67,-0.58,-0.4,-0.21,3.0,112.06,21.25,-43.06,112.06,21.25,-43.06,0.52,0.03,-0.39,-0.76
0.0,34.13,54.0,87.56,34.13,54.0,87.56,0.69,-0.54,-0.43,-0.21,3.0,110.12,21.62,-42.31,110.12,21.62,-42.31,0.53,0.02,-0.4,-0.75
0.0,30.44,56.13,87.06,30.44,56.13,87.06,0.68,-0.54,-0.47,-0.18,3.0,110.94,24.87,-42.94,110.94,24.87,-42.94,0.51,-0.01,-0.42,-0.75
0.0,27.87,50.63,106.19,27.87,50.63,106.19,0.59,-0.65,-0.47,-0.15,3.0,113.31,29.44,-46.06,113.31,29.44,-46.06,0.47,-0.05,-0.46,-0.75
0.0,30.25,42.0,124.62,30.25,42.0,124.62,0.49,-0.73,-0.45,-0.14,3.0,124.44,31.44,-55.75,124.44,31.44,-55.75,0.36,-0.09,-0.52,-0.77
0.0,32.75,38.94,134.19,32.75,38.94,134.19,0.45,-0.74,-0.48,-0.14,2.0,137.56,29.44,-62.25,137.56,29.44,-62.25,0.28,-0.12,-0.54,-0.78
0.0,35.13,40.13,139.44,35.13,40.13,139.44,0.42,-0.73,-0.51,-0.14,2.0,146.94,28.56,-67.19,146.94,28.56,-67.19,0.21,-0.15,-0.56,-0.79
0.0,39.88,38.19,145.5,39.88,38.19,145.5,0.39,-0.75,-0.51,-0.14,2.0,157.31,26.31,-71.94,157.31,26.31,-71.94,0.14,-0.17,-0.59,-0.78
0.0,46.81,36.88,149.06,46.81,36.88,149.06,0.36,-0.79,-0.48,-0.16,2.0,161.25,25.94,-77.87,161.25,25.94,-77.87,0.12,-0.2,-0.62,-0.75
0.0,46.81,36.81,146.31,46.81,36.81,146.31,0.38,-0.79,-0.46,-0.16,2.0,163.63,26.25,-83.44,163.63,26.25,-83.44,0.1,-0.21,-0.64,-0.73
0.0,37.5,41.88,134.44,37.5,41.88,134.44,0.51,-0.7,-0.48,-0.15,2.0,162.56,27.25,-84.69,162.56,27.25,-84.69,0.12,-0.22,-0.64,-0.72
0.0,32.81,54.25,113.94,32.81,54.25,113.94,0.62,-0.56,-0.52,-0.2,2.0,159.0,28.81,-84.44,159.0,28.81,-84.44,0.14,-0.21,-0.64,-0.73
0.0,34.88,59.63,96.5,34.88,59.63,96.5,0.65,-0.54,-0.49,-0.21,2.0,158.75,28.56,-82.44,158.75,28.56,-82.44,0.14,-0.2,-0.63,-0.74
0.0,30.75,52.38,97.69,30.75,52.38,97.69,0.65,-0.59,-0.45,-0.18,2.0,150.75,30.25,-77.87,150.75,30.25,-77.87,0.24,-0.16,-0.6,-0.74
0.0,29.87,50.69,95.25,29.87,50.69,95.25,0.66,-0.59,-0.43,-0.18,2.0,132.06,34.5,-68.87,132.06,34.5,-68.87,0.37,-0.11,-0.56,-0.73
0.0,28.81,52.75,91.69,28.81,52.75,91.69,0.68,-0.56,-0.44,-0.17,2.0,119.44,34.75,-59.5,119.44,34.75,-59.5,0.42,-0.08,-0.53,-0.73
0.0,28.87,54.81,95.69,28.87,54.81,95.69,0.66,-0.55,-0.47,-0.17,2.0,116.06,32.94,-54.88,116.06,32.94,-54.88,0.46,-0.06,-0.51,-0.73
0.0,30.56,54.63,107.5,30.56,54.63,107.5,0.62,-0.58,-0.5,-0.17,2.0,115.56,31.5,-52.0,115.56,31.5,-52.0,0.47,-0.05,-0.49,-0.74
0.0,32.88,51.44,120.12,32.88,51.44,120.12,0.53,-0.65,-0.51,-0.17,2.0,115.06,31.69,-51.31,115.06,31.69,-51.31,0.47,-0.05,-0.48,-0.74
0.0,38.38,46.38,134.56,38.38,46.38,134.56,0.46,-0.7,-0.51,-0.17,2.0,114.5,33.81,-52.5,114.5,33.81,-52.5,0.46,-0.08,-0.51,-0.73
0.0,44.56,42.81,143.81,44.56,42.81,143.81,0.4,-0.73,-0.52,-0.17,2.0,121.5,36.44,-60.25,121.5,36.44,-60.25,0.37,-0.12,-0.55,-0.73
0.0,49.94,41.31,149.94,49.94,41.31,149.94,0.37,-0.74,-0.53,-0.18,2.0,134.94,34.94,-69.75,134.94,34.94,-69.75,0.28,-0.16,-0.59,-0.74
0.0,52.13,40.19,153.13,52.13,40.19,153.13,0.35,-0.74,-0.54,-0.18,2.0,142.5,33.69,-74.56,142.5,33.69,-74.56,0.24,-0.18,-0.61,-0.73
0.0,53.75,38.88,154.63,53.75,38.88,154.63,0.34,-0.76,-0.52,-0.17,2.0,146.75,33.69,-81.56,146.75,33.69,-81.56,0.2,-0.21,-0.65,-0.71
0.0,114.87,36.63,151.94,114.87,36.63,151.94,0.36,-0.78,-0.49,-0.16,2.0,152.56,32.38,-88.62,152.56,32.38,-88.62,0.17,-0.23,-0.67,-0.69
0.0,40.19,38.63,143.19,40.19,38.63,143.19,0.44,-0.73,-0.5,-0.15,2.0,150.75,33.5,-93.56,150.75,33.5,-93.56,0.18,-0.24,-0.7,-0.65
0.0,34.44,47.38,130.63,34.44,47.38,130.63,0.54,-0.64,-0.52,-0.16,2.0,147.44,34.56,-99.0,147.44,34.56,-99.0,0.19,-0.24,-0.72,-0.63
0.0,30.94,53.13,115.56,30.94,53.13,115.56,0.61,-0.58,-0.51,-0.17,2.0,145.81,35.31,-101.25,145.81,35.31,-101.25,0.19,-0.25,-0.72,-0.62
0.0,36.38,59.69,101.5,36.38,59.69,101.5,0.65,-0.55,-0.48,-0.22,2.0,145.94,35.38,-99.5,145.94,35.38,-99.5,0.19,-0.24,-0.71,-0.63
0.0,39.19,57.56,93.0,39.19,57.56,93.0,0.66,-0.57,-0.42,-0.24,2.0,142.88,36.38,-95.81,142.88,36.38,-95.81,0.25,-0.22,-0.69,-0.65
0.0,45.69,58.63,81.19,45.69,58.63,81.19,0.68,-0.52,-0.4,-0.32,2.0,124.12,44.06,-85.19,124.12,44.06,-85.19,0.39,-0.18,-0.64,-0.64
0.0,57.0,65.25,60.81,57.0,65.25,60.81,0.67,-0.5,-0.4,-0.38,2.0,105.87,49.06,-70.0,105.87,49.06,-70.0,0.5,-0.14,-0.59,-0.62
0.0,60.69,63.38,79.44,60.69,63.38,79.44,0.62,-0.6,-0.36,-0.37,2.0,101.0,48.13,-61.38,101.0,48.13,-61.38,0.51,-0.12,-0.57,-0.64
0.0,60.63,59.75,90.62,60.63,59.75,90.62,0.61,-0.6,-0.37,-0.35,2.0,106.31,45.56,-61.19,106.31,45.56,-61.19,0.48,-0.13,-0.56,-0.66
0.0,57.31,65.56,83.56,57.31,65.56,83.56,0.64,-0.53,-0.44,-0.34,2.0,107.5,44.56,-57.81,107.5,44.56,-57.81,0.5,-0.13,-0.53,-0.67
0.0,50.25,64.75,91.19,50.25,64.75,91.19,0.63,-0.57,-0.45,-0.28,2.0,102.75,44.75,-49.75,102.75,44.75,-49.75,0.55,-0.13,-0.49,-0.66
0.0,43.63,56.44,107.37,43.63,56.44,107.37,0.59,-0.64,-0.44,-0.22,2.0,98.44,46.94,-44.5,98.44,46.94,-44.5,0.56,-0.14,-0.49,-0.65
0.0,32.88,47.0,116.81,32.88,47.0,116.81,0.56,-0.68,-0.46,-0.14,2.0,104.06,51.0,-48.69,104.06,51.0,-48.69,0.52,-0.19,-0.51,-0.66
0.0,17.19,39.13,120.25,17.19,39.13,120.25,0.54,-0.69,-0.48,-0.05,2.0,115.44,53.75,-58.5,115.44,53.75,-58.5,0.43,-0.26,-0.53,-0.68
0.0,0.19,30.56,120.5,0.19,30.56,120.5,0.53,-0.7,-0.48,-0.0,2.0,125.87,54.13,-71.37,125.87,54.13,-71.37,0.35,-0.3,-0.56,-0.69
0.0,354.06,27.87,118.44,354.06,27.87,118.44,0.54,-0.69,-0.47,0.03,2.0,137.44,50.88,-86.5,137.44,50.88,-86.5,0.26,-0.34,-0.6,-0.67
0.0,358.31,30.62,115.81,358.31,30.62,115.81,0.56,-0.69,-0.47,0.01,2.0,137.69,51.69,-87.25,137.69,51.69,-87.25,0.26,-0.36,-0.6,-0.67
0.0,9.13,35.31,114.06,9.13,35.31,114.06,0.58,-0.68,-0.45,-0.05,2.0,134.06,53.63,-92.81,134.06,53.63,-92.81,0.27,-0.37,-0.62,-0.64
0.0,21.19,42.94,108.31,21.19,42.94,108.31,0.61,-0.65,-0.44,-0.11,2.0,143.06,48.38,-102.5,143.06,48.38,-102.5,0.21,-0.39,-0.65,-0.62
0.0,28.0,49.88,98.06,28.0,49.88,98.06,0.65,-0.6,-0.44,-0.16,2.0,146.31,46.63,-104.37,146.31,46.63,-104.37,0.19,-0.39,-0.66,-0.61
0.0,37.69,59.56,86.25,37.69,59.56,86.25,0.68,-0.53,-0.45,-0.23,2.0,140.19,49.06,-105.81,140.19,49.06,-105.81,0.23,-0.39,-0.67,-0.59
0.0,42.13,60.06,88.75,42.13,60.06,88.75,0.66,-0.55,-0.44,-0.26,2.0,138.63,48.69,-111.62,138.63,48.69,-111.62,0.2,-0.4,-0.69,-0.57
0.0,48.63,59.38,94.94,48.63,59.38,94.94,0.63,-0.59,-0.42,-0.28,2.0,147.0,43.81,-114.06,147.0,43.81,-114.06,0.16,-0.4,-0.7,-0.57
0.0,52.31,59.81,95.5,52.31,59.81,95.5,0.62,-0.6,-0.4,-0.32,2.0,148.5,42.81,-114.56,148.5,42.81,-114.56,0.16,-0.4,-0.7,-0.57
0.0,59.94,65.5,87.0,59.94,65.5,87.0,0.61,-0.55,-0.42,-0.38,2.0,147.56,42.94,-113.62,147.56,42.94,-113.62,0.16,-0.39,-0.7,-0.58
0.0,67.56,71.94,81.81,67.56,71.94,81.81,0.59,-0.56,-0.43,-0.4,2.0,152.31,40.31,-109.37,152.31,40.31,-109.37,0.14,-0.37,-0.7,-0.6
0.0,71.12,72.19,94.62,71.12,72.19,94.62,0.55,-0.57,-0.44,-0.42,2.0,157.63,37.13,-105.56,157.63,37.13,-105.56,0.12,-0.35,-0.69,-0.62
0.0,76.56,74.56,109.37,76.56,74.56,109.37,0.52,-0.61,-0.44,-0.41,2.0,158.63,36.63,-98.94,158.63,36.63,-98.94,0.12,-0.33,-0.67,-0.65
0.0,75.5,66.44,126.94,75.5,66.44,126.94,0.47,-0.68,-0.43,-0.36,2.0,159.19,35.06,-91.44,159.19,35.06,-91.44,0.13,-0.3,-0.65,-0.69
0.0,71.75,60.63,135.56,71.75,60.63,135.56,0.46,-0.69,-0.46,-0.32,3.0,160.0,32.25,-84.25,160.0,32.25,-84.25,0.13,-0.26,-0.63,-0.73
0.0,62.25,56.0,138.69,62.25,56.0,138.69,0.46,-0.7,-0.49,-0.26,3.0,156.25,30.87,-75.31,156.25,30.87,-75.31,0.16,-0.21,-0.59,-0.76
0.0,51.31,48.0,139.63,51.31,48.0,139.63,0.44,-0.73,-0.48,-0.19,3.0,152.63,28.31,-70.12,152.63,28.31,-70.12,0.19,-0.16,-0.57,-0.78
0.0,36.56,37.88,138.81,36.56,37.88,138.81,0.43,-0.77,-0.46,-0.11,3.0,153.0,25.37,-69.12,153.0,25.37,-69.12,0.19,-0.14,-0.57,-0.79
0.0,10.5,26.94,134.0,10.5,26.94,134.0,0.44,-0.78,-0.45,-0.0,3.0,158.44,21.19,-68.37,158.44,21.19,-68.37,0.15,-0.12,-0.56,-0.81
0.0,343.63,19.25,123.56,343.63,19.25,123.56,0.52,-0.72,-0.46,0.09,3.0,159.31,19.06,-67.62,159.31,19.06,-67.62,0.15,-0.1,-0.56,-0.81
0.0,344.81,27.25,111.56,344.81,27.25,111.56,0.59,-0.64,-0.49,0.07,3.0,159.25,17.75,-66.94,159.25,17.75,-66.94,0.15,-0.09,-0.55,-0.82
0.0,343.31,26.62,111.69,343.31,26.62,111.69,0.55,-0.67,-0.48,0.1,3.0,160.0,16.94,-66.5,160.0,16.94,-66.5,0.14,-0.08,-0.55,-0.82
0.0,335.63,19.94,116.06,335.63,19.94,116.06,0.54,-0.69,-0.47,0.11,3.0,160.88,16.25,-67.81,160.88,16.25,-67.81,0.14,-0.08,-0.56,-0.81
0.0,341.44,25.62,111.37,341.44,25.62,111.37,0.59,-0.63,-0.49,0.08,3.0,162.31,15.31,-70.06,162.31,15.31,-70.06,0.13,-0.08,-0.57,-0.81
0.0,349.13,33.31,104.25,349.13,33.31,104.25,0.64,-0.59,-0.5,0.05,3.0,162.44,14.44,-70.87,162.44,14.44,-70.87,0.12,-0.07,-0.58,-0.8
0.0,350.69,34.94,103.06,350.69,34.94,103.06,0.63,-0.59,-0.5,0.06,3.0,159.94,14.63,-70.87,159.94,14.63,-70.87,0.14,-0.06,-0.58,-0.8
0.0,342.56,30.87,104.62,342.56,30.87,104.62,0.61,-0.59,-0.51,0.11,3.0,157.0,15.25,-71.0,157.0,15.25,-71.0,0.16,-0.05,-0.58,-0.79
0.0,335.13,28.5,104.44,335.13,28.5,104.44,0.61,-0.58,-0.52,0.15,3.0,153.81,16.69,-71.06,153.81,16.69,-71.06,0.18,-0.05,-0.59,-0.79
0.0,328.5,26.31,102.06,328.5,26.31,102.06,0.62,-0.56,-0.53,0.16,3.0,147.94,21.94,-73.56,147.94,21.94,-73.56,0.22,-0.07,-0.6,-0.76
0.0,331.38,28.75,103.12,331.38,28.75,103.12,0.61,-0.57,-0.53,0.16,3.0,147.38,24.56,-76.12,147.38,24.56,-76.12,0.22,-0.1,-0.62,-0.75
0.0,330.56,27.62,105.12,330.56,27.62,105.12,0.6,-0.57,-0.54,0.16,3.0,155.31,20.94,-76.69,155.31,20.94,-76.69,0.17,-0.1,-0.62,-0.76
0.0,330.25,26.69,105.25,330.25,26.69,105.25,0.6,-0.58,-0.53,0.15,3.0,161.81,14.94,-77.06,161.81,14.94,-77.06,0.12,-0.07,-0.62,-0.77
0.0,341.06,30.62,106.25,341.06,30.62,106.25,0.61,-0.61,-0.5,0.08,3.0,153.13,15.56,-82.06,153.13,15.56,-82.06,0.17,-0.03,-0.66,-0.73
0.0,350.81,28.31,106.56,350.81,28.31,106.56,0.62,-0.67,-0.42,0.04,3.0,144.0,17.25,-87.94,144.0,17.25,-87.94,0.24,0.03,-0.71,-0.66
0.0,356.25,28.12,100.62,356.25,28.12,100.62,0.67,-0.64,-0.38,0.02,3.0,131.31,19.62,-97.69,131.31,19.62,-97.69,0.28,0.07,-0.76,-0.58
0.0,357.69,31.5,89.31,357.69,31.5,89.31,0.73,-0.56,-0.38,0.01,3.0,127.87,17.62,-104.5,127.87,17.62,-104.5,0.27,0.11,-0.78,-0.55
0.0,359.31,35.44,77.94,359.31,35.44,77.94,0.77,-0.51,-0.37,-0.01,3.0,134.13,12.94,-105.19,134.13,12.94,-105.19,0.22,0.14,-0.78,-0.57
0.0,3.88,33.88,75.75,3.88,33.88,75.75,0.77,-0.55,-0.32,-0.03,3.0,141.56,8.0,-106.12,141.56,8.0,-106.12,0.2,0.16,-0.79,-0.56
0.0,3.88,27.62,76.56,3.88,27.62,76.56,0.78,-0.56,-0.27,-0.03,3.0,136.06,10.06,-109.56,136.06,10.06,-109.56,0.23,0.16,-0.81,-0.52
0.0,5.25,27.87,69.37,5.25,27.87,69.37,0.82,-0.5,-0.27,-0.04,3.0,127.5,13.56,-115.75,127.5,13.56,-115.75,0.24,0.17,-0.83,-0.48
0.0,8.38,31.12,57.63,8.38,31.12,57.63,0.86,-0.43,-0.27,-0.08,3.0,128.5,13.5,-113.5,128.5,13.5,-113.5,0.23,0.16,-0.81,-0.51
0.0,17.56,33.94,51.88,17.56,33.94,51.88,0.85,-0.43,-0.25,-0.14,3.0,135.69,10.94,-110.62,135.69,10.94,-110.62,0.21,0.15,-0.81,-0.53
0.0,17.44,32.0,57.25,17.44,32.0,57.25,0.84,-0.47,-0.25,-0.12,3.0,136.38,11.5,-111.87,136.38,11.5,-111.87,0.22,0.13,-0.82,-0.52
0.0,14.19,31.75,57.38,14.19,31.75,57.38,0.85,-0.44,-0.26,-0.11,3.0,130.38,16.12,-112.56,130.38,16.12,-112.56,0.24,0.09,-0.82,-0.51
0.0,17.56,34.94,52.25,17.56,34.94,52.25,0.86,-0.42,-0.27,-0.14,3.0,130.44,18.81,-112.25,130.44,18.81,-112.25,0.22,0.05,-0.82,-0.52
0.0,20.12,35.5,52.38,20.12,35.5,52.38,0.85,-0.43,-0.26,-0.15,3.0,147.25,13.94,-111.75,147.25,13.94,-111.75,0.12,0.01,-0.82,-0.55
0.0,20.87,36.0,52.38,20.87,36.0,52.38,0.85,-0.41,-0.27,-0.16,3.0,166.06,8.44,-110.87,166.06,8.44,-110.87,0.06,-0.05,-0.82,-0.57
0.0,23.0,39.81,46.5,23.0,39.81,46.5,0.86,-0.38,-0.3,-0.18,3.0,167.5,11.75,-110.81,167.5,11.75,-110.81,0.06,-0.11,-0.82,-0.56
0.0,25.81,42.31,45.0,25.81,42.31,45.0,0.85,-0.39,-0.3,-0.2,3.0,172.56,12.75,-113.81,172.56,12.75,-113.81,0.03,-0.17,-0.82,-0.54
0.0,28.69,41.31,48.5,28.69,41.31,48.5,0.83,-0.42,-0.28,-0.23,3.0,175.5,15.13,-117.5,175.5,15.13,-117.5,0.01,-0.24,-0.82,-0.51
0.0,33.0,41.19,49.38,33.0,41.19,49.38,0.83,-0.43,-0.27,-0.25,3.0,181.94,14.13,-123.06,181.94,14.13,-123.06,-0.02,-0.28,-0.84,-0.47
0.0,34.25,42.25,47.13,34.25,42.25,47.13,0.83,-0.41,-0.28,-0.26,3.0,184.75,14.0,-126.0,184.75,14.0,-126.0,-0.01,-0.31,-0.83,-0.46
0.0,36.75,45.5,41.63,36.75,45.5,41.63,0.82,-0.38,-0.31,-0.29,3.0,179.69,17.44,-127.44,179.69,17.44,-127.44,-0.0,-0.33,-0.83,-0.46
0.0,41.69,48.69,39.25,41.69,48.69,39.25,0.81,-0.39,-0.32,-0.31,3.0,185.38,16.0,-127.87,185.38,16.0,-127.87,-0.03,-0.35,-0.82,-0.45
0.0,43.63,49.19,44.25,43.63,49.19,44.25,0.79,-0.42,-0.31,-0.33,3.0,189.69,14.75,-128.5,189.69,14.75,-128.5,-0.03,-0.36,-0.82,-0.44
0.0,47.06,51.5,48.5,47.06,51.5,48.5,0.76,-0.46,-0.32,-0.33,3.0,185.25,17.06,-128.88,185.25,17.06,-128.88,-0.02,-0.37,-0.81,-0.45
0.0,45.44,52.31,59.5,45.44,52.31,59.5,0.74,-0.49,-0.34,-0.31,3.0,184.88,18.0,-126.75,184.88,18.0,-126.75,-0.02,-0.37,-0.81,-0.46
0.0,43.25,56.0,62.44,43.25,56.0,62.44,0.74,-0.47,-0.39,-0.29,3.0,185.13,18.75,-122.56,185.13,18.75,-122.56,-0.02,-0.36,-0.78,-0.5
0.0,40.56,60.25,65.69,40.56,60.25,65.69,0.73,-0.47,-0.42,-0.27,3.0,185.69,19.37,-118.19,185.69,19.37,-118.19,-0.03,-0.35,-0.77,-0.53
0.0,36.0,57.44,79.81,36.0,57.44,79.81,0.69,-0.53,-0.43,-0.22,3.0,189.81,18.37,-112.75,189.81,18.37,-112.75,-0.05,-0.35,-0.75,-0.56
0.0,34.88,55.56,87.62,34.88,55.56,87.62,0.68,-0.55,-0.44,-0.21,3.0,191.94,17.25,-108.06,191.94,17.25,-108.06,-0.06,-0.33,-0.74,-0.59
0.0,31.0,54.88,90.56,31.0,54.88,90.56,0.68,-0.55,-0.45,-0.19,3.0,190.13,17.37,-104.81,190.13,17.37,-104.81,-0.05,-0.31,-0.73,-0.61
0.0,25.5,53.19,93.0,25.5,53.19,93.0,0.68,-0.55,-0.47,-0.15,3.0,190.13,16.19,-102.37,190.13,16.19,-102.37,-0.06,-0.29,-0.72,-0.63
0.0,21.87,50.25,95.94,21.87,50.25,95.94,0.67,-0.56,-0.46,-0.13,3.0,191.25,14.0,-100.87,191.25,14.0,-100.87,-0.06,-0.26,-0.72,-0.64
0.0,17.19,46.0,97.31,17.19,46.0,97.31,0.67,-0.58,-0.45,-0.1,3.0,184.63,15.63,-101.5,184.63,15.63,-101.5,-0.03,-0.24,-0.73,-0.63
0.0,13.06,43.69,95.94,13.06,43.69,95.94,0.68,-0.58,-0.44,-0.08,3.0,173.5,19.0,-104.31,173.5,19.0,-104.31,0.03,-0.22,-0.75,-0.62
0.0,9.88,42.38,93.31,9.88,42.38,93.31,0.69,-0.57,-0.44,-0.06,3.0,167.38,20.62,-106.25,167.38,20.62,-106.25,0.08,-0.2,-0.77,-0.6
0.0,6.88,40.88,89.81,6.88,40.88,89.81,0.71,-0.56,-0.43,-0.04,3.0,163.25,21.19,-108.44,163.25,21.19,-108.44,0.09,-0.19,-0.79,-0.58
0.0,3.94,39.5,86.94,3.94,39.5,86.94,0.72,-0.55,-0.42,-0.02,3.0,163.56,19.81,-109.56,163.56,19.81,-109.56,0.08,-0.17,-0.79,-0.58
0.0,358.44,34.44,86.75,358.44,34.44,86.75,0.72,-0.56,-0.4,0.01,3.0,164.88,17.56,-110.5,164.88,17.56,-110.5,0.08,-0.15,-0.81,-0.57
0.0,355.0,31.62,85.81,355.0,31.62,85.81,0.73,-0.56,-0.38,0.04,3.0,161.88,17.56,-112.5,161.88,17.56,-112.5,0.1,-0.14,-0.82,-0.55
0.0,351.5,31.25,81.12,351.5,31.25,81.12,0.76,-0.52,-0.39,0.06,3.0,158.5,17.87,-113.5,158.5,17.87,-113.5,0.11,-0.12,-0.82,-0.54
0.0,347.63,29.56,78.25,347.63,29.56,78.25,0.76,-0.52,-0.37,0.09,3.0,156.25,17.44,-114.37,156.25,17.44,-114.37,0.12,-0.1,-0.83,-0.54
0.0,343.81,25.0,80.19,343.81,25.0,80.19,0.75,-0.55,-0.35,0.12,3.0,150.19,18.87,-115.69,150.19,18.87,-115.69,0.15,-0.08,-0.84,-0.52
0.0,338.25,19.94,81.19,338.25,19.94,81.19,0.74,-0.56,-0.34,0.15,3.0,146.5,19.87,-115.19,146.5,19.87,-115.19,0.16,-0.07,-0.83,-0.53
0.0,334.81,18.87,79.44,334.81,18.87,79.44,0.75,-0.55,-0.34,0.18,3.0,148.06,18.31,-113.06,148.06,18.31,-113.06,0.15,-0.05,-0.82,-0.54
0.0,331.25,16.44,79.81,331.25,16.44,79.81,0.74,-0.56,-0.33,0.19,3.0,147.38,16.87,-111.37,147.38,16.87,-111.37,0.16,-0.03,-0.82,-0.55
0.0,329.13,14.69,81.25,329.13,14.69,81.25,0.73,-0.57,-0.33,0.21,3.0,138.44,19.31,-109.06,138.44,19.31,-109.06,0.23,0.02,-0.8,-0.55
0.0,326.88,13.69,82.44,326.88,13.69,82.44,0.72,-0.57,-0.34,0.22,3.0,130.06,21.5,-104.25,130.06,21.5,-104.25,0.26,0.04,-0.78,-0.56
0.0,325.63,14.0,83.12,325.63,14.0,83.12,0.71,-0.57,-0.35,0.22,3.0,129.44,18.81,-98.56,129.44,18.81,-98.56,0.28,0.08,-0.75,-0.59
0.0,324.31,13.75,85.19,324.31,13.75,85.19,0.69,-0.58,-0.36,0.23,3.0,125.81,18.0,-93.75,125.81,18.0,-93.75,0.31,0.11,-0.72,-0.61
0.0,323.38,13.44,86.87,323.38,13.44,86.87,0.69,-0.58,-0.37,0.23,3.0,120.69,18.87,-89.56,120.69,18.87,-89.56,0.35,0.13,-0.69,-0.62
0.0,323.13,14.13,87.94,323.13,14.13,87.94,0.68,-0.59,-0.38,0.23,3.0,121.56,17.44,-85.5,121.56,17.44,-85.5,0.36,0.14,-0.67,-0.64
0.0,323.38,14.56,89.87,323.38,14.56,89.87,0.67,-0.6,-0.39,0.22,3.0,123.37,15.94,-81.25,123.37,15.94,-81.25,0.36,0.14,-0.64,-0.67
0.0,325.0,15.63,91.62,325.0,15.63,91.62,0.66,-0.6,-0.39,0.21,3.0,121.44,16.62,-78.31,121.44,16.62,-78.31,0.38,0.13,-0.62,-0.67
0.0,326.38,16.44,93.19,326.38,16.44,93.19,0.66,-0.61,-0.4,0.19,3.0,120.56,17.25,-76.56,120.56,17.25,-76.56,0.39,0.12,-0.61,-0.68
0.0,328.81,17.56,94.62,328.81,17.56,94.62,0.65,-0.61,-0.41,0.18,3.0,122.44,17.19,-74.0,122.44,17.19,-74.0,0.38,0.11,-0.59,-0.7
0.0,330.75,18.94,95.81,330.75,18.94,95.81,0.65,-0.62,-0.41,0.17,3.0,123.0,17.37,-71.37,123.0,17.37,-71.37,0.39,0.1,-0.58,-0.71
0.0,332.19,19.25,97.69,332.19,19.25,97.69,0.64,-0.63,-0.41,0.15,3.0,122.5,18.69,-69.56,122.5,18.69,-69.56,0.39,0.08,-0.57,-0.72
0.0,334.5,19.75,98.94,334.5,19.75,98.94,0.64,-0.64,-0.41,0.14,3.0,126.87,19.25,-68.94,126.87,19.25,-68.94,0.35,0.05,-0.57,-0.74
0.0,336.94,21.62,98.31,336.94,21.62,98.31,0.65,-0.63,-0.42,0.13,3.0,130.44,19.87,-67.94,130.44,19.87,-67.94,0.35,0.03,-0.57,-0.75
0.0,339.31,23.25,98.06,339.31,23.25,98.06,0.65,-0.63,-0.42,0.11,3.0,128.0,22.81,-67.12,128.0,22.81,-67.12,0.37,0.0,-0.57,-0.74
0.0,341.94,24.06,98.44,341.94,24.06,98.44,0.65,-0.63,-0.41,0.1,3.0,127.56,26.69,-68.81,127.56,26.69,-68.81,0.34,-0.04,-0.59,-0.73
0.0,344.44,25.69,97.25,344.44,25.69,97.25,0.66,-0.61,-0.42,0.09,3.0,135.44,28.56,-75.44,135.44,28.56,-75.44,0.27,-0.1,-0.63,-0.72
0.0,346.06,27.5,94.75,346.06,27.5,94.75,0.68,-0.6,-0.41,0.08,3.0,145.81,29.06,-81.56,145.81,29.06,-81.56,0.19,-0.15,-0.66,-0.72
0.0,349.06,28.87,92.19,349.06,28.87,92.19,0.69,-0.59,-0.41,0.07,3.0,155.88,25.44,-89.37,155.88,25.44,-89.37,0.14,-0.17,-0.7,-0.68
0.0,352.81,31.31,88.5,352.81,31.31,88.5,0.71,-0.57,-0.4,0.04,3.0,156.25,26.19,-96.75,156.25,26.19,-96.75,0.14,-0.19,-0.72,-0.65
0.0,253.38,34.06,84.94,253.38,34.06,84.94,0.44,-0.03,-0.68,0.59,3.0,153.06,28.81,-100.19,153.06,28.81,-100.19,0.15,-0.21,-0.74,-0.62
0.0,255.63,34.88,82.12,255.63,34.88,82.12,0.46,-0.03,-0.67,0.59,3.0,156.19,27.75,-106.25,156.19,27.75,-106.25,0.13,-0.23,-0.76,-0.6
0.0,258.75,37.06,77.87,258.75,37.06,77.87,0.48,-0.02,-0.65,0.59,3.0,163.06,25.0,-110.69,163.06,25.0,-110.69,0.09,-0.25,-0.77,-0.58
0.0,262.88,40.0,72.69,262.88,40.0,72.69,0.52,-0.0,-0.62,0.59,3.0,161.13,26.69,-113.69,161.13,26.69,-113.69,0.09,-0.27,-0.78,-0.56
0.0,267.25,42.25,67.87,267.25,42.25,67.87,0.55,0.01,-0.6,0.58,3.0,154.31,30.44,-119.31,154.31,30.44,-119.31,0.12,-0.3,-0.79,-0.52
0.0,270.94,44.44,64.69,270.94,44.44,64.69,0.59,0.02,-0.58,0.56,3.0,157.31,28.19,-124.0,157.31,28.19,-124.0,0.1,-0.32,-0.8,-0.49
0.0,275.31,47.25,60.94,275.31,47.25,60.94,0.61,0.04,-0.57,0.54,3.0,158.69,27.19,-126.0,158.69,27.19,-126.0,0.09,-0.33,-0.81,-0.47
0.0,279.19,50.06,57.5,279.19,50.06,57.5,0.63,0.06,-0.57,0.52,3.0,160.44,25.81,-129.44,160.44,25.81,-129.44,0.08,-0.34,-0.82,-0.46
0.0,282.81,52.19,55.44,282.81,52.19,55.44,0.65,0.06,-0.57,0.51,3.0,165.38,23.69,-129.88,165.38,23.69,-129.88,0.05,-0.34,-0.82,-0.45
0.0,286.63,53.5,55.31,286.63,53.5,55.31,0.66,0.05,-0.58,0.48,3.0,170.94,22.06,-128.88,170.94,22.06,-128.88,0.03,-0.35,-0.82,-0.46
0.0,290.63,55.06,55.5,290.63,55.06,55.5,0.67,0.05,-0.58,0.46,3.0,172.69,22.06,-128.38,172.69,22.06,-128.38,0.03,-0.36,-0.81,-0.46
0.0,293.25,56.88,55.63,293.25,56.88,55.63,0.68,0.05,-0.59,0.44,3.0,176.75,21.06,-127.37,176.75,21.06,-127.37,0.01,-0.37,-0.8,-0.47
0.0,294.88,58.69,57.25,294.88,58.69,57.25,0.67,0.06,-0.6,0.43,3.0,180.13,20.37,-125.25,180.13,20.37,-125.25,-0.0,-0.37,-0.8,-0.48
0.0,296.13,59.94,61.0,296.13,59.94,61.0,0.66,0.05,-0.62,0.41,3.0,182.94,19.87,-122.56,182.94,19.87,-122.56,-0.02,-0.36,-0.78,-0.5
0.0,296.44,59.5,68.19,296.44,59.5,68.19,0.65,0.03,-0.64,0.4,3.0,187.13,18.75,-118.94,187.13,18.75,-118.94,-0.04,-0.36,-0.77,-0.53
0.0,296.75,59.0,75.0,296.75,59.0,75.0,0.64,0.01,-0.66,0.39,3.0,189.38,18.12,-114.81,189.38,18.12,-114.81,-0.04,-0.34,-0.75,-0.56
0.0,295.75,58.94,80.62,295.75,58.94,80.62,0.62,0.02,-0.68,0.39,3.0,189.44,17.94,-109.5,189.44,17.94,-109.5,-0.05,-0.32,-0.74,-0.59
3.0,293.25,58.38,85.87,293.25,58.38,85.87,0.59,0.02,-0.7,0.4,3.0,191.38,15.88,-103.69,191.38,15.88,-103.69,-0.06,-0.28,-0.72,-0.63
3.0,291.06,57.06,91.0,291.06,57.06,91.0,0.57,0.01,-0.72,0.4,3.0,191.75,13.75,-98.94,191.75,13.75,-98.94,-0.07,-0.24,-0.71,-0.66
3.0,287.88,53.38,95.94,287.88,53.38,95.94,0.54,-0.02,-0.73,0.41,3.0,190.5,11.44,-94.94,190.5,11.44,-94.94,-0.06,-0.2,-0.7,-0.68
3.0,283.94,49.19,99.06,283.94,49.19,99.06,0.52,-0.03,-0.74,0.42,3.0,186.25,10.31,-92.44,186.25,10.31,-92.44,-0.02,-0.16,-0.7,-0.69
3.0,280.75,47.06,99.81,280.75,47.06,99.81,0.51,-0.04,-0.75,0.43,3.0,178.63,12.38,-91.94,178.63,12.38,-91.94,0.01,-0.14,-0.7,-0.7
3.0,277.81,45.44,99.94,277.81,45.44,99.94,0.49,-0.04,-0.75,0.44,3.0,177.81,11.5,-91.69,177.81,11.5,-91.69,0.01,-0.12,-0.71,-0.7
3.0,274.56,42.38,100.25,274.56,42.38,100.25,0.48,-0.06,-0.75,0.45,3.0,175.5,11.06,-92.5,175.5,11.06,-92.5,0.04,-0.11,-0.72,-0.69
3.0,272.44,41.56,98.0,272.44,41.56,98.0,0.49,-0.05,-0.74,0.47,3.0,169.25,13.13,-95.25,169.25,13.13,-95.25,0.07,-0.1,-0.74,-0.67
3.0,270.13,42.44,94.12,270.13,42.44,94.12,0.48,-0.03,-0.72,0.49,3.0,167.69,13.69,-97.62,167.69,13.69,-97.62,0.07,-0.1,-0.75,-0.65
3.0,267.44,40.94,92.94,267.44,40.94,92.94,0.48,-0.04,-0.72,0.5,3.0,169.06,12.63,-100.19,169.06,12.63,-100.19,0.06,-0.1,-0.76,-0.63
3.0,266.25,39.19,92.5,266.25,39.19,92.5,0.47,-0.05,-0.72,0.51,3.0,166.06,13.81,-102.06,166.06,13.81,-102.06,0.09,-0.1,-0.77,-0.62
3.0,264.0,37.44,91.25,264.0,37.44,91.25,0.47,-0.06,-0.71,0.53,3.0,158.44,16.75,-103.69,158.44,16.75,-103.69,0.13,-0.08,-0.78,-0.6
3.0,261.81,36.25,89.19,261.81,36.25,89.19,0.46,-0.06,-0.7,0.54,3.0,148.13,20.25,-107.06,148.13,20.25,-107.06,0.18,-0.07,-0.8,-0.57
3.0,259.63,34.88,87.31,259.63,34.88,87.31,0.46,-0.06,-0.69,0.56,3.0,141.56,22.37,-109.31,141.56,22.37,-109.31,0.2,-0.06,-0.81,-0.55
3.0,256.69,32.44,86.31,256.69,32.44,86.31,0.44,-0.08,-0.68,0.57,3.0,140.63,22.5,-109.37,140.63,22.5,-109.37,0.2,-0.05,-0.81,-0.55
3.0,252.94,29.19,86.0,252.94,29.19,86.0,0.43,-0.09,-0.68,0.59,3.0,139.88,22.19,-109.62,139.88,22.19,-109.62,0.21,-0.04,-0.81,-0.55
3.0,248.69,25.87,85.37,248.69,25.87,85.37,0.41,-0.1,-0.67,0.61,3.0,134.25,24.12,-111.25,134.25,24.12,-111.25,0.22,-0.04,-0.81,-0.53
3.0,244.81,23.62,83.87,244.81,23.62,83.87,0.39,-0.1,-0.66,0.63,3.0,130.69,24.94,-112.62,130.69,24.94,-112.62,0.24,-0.03,-0.82,-0.52
3.0,241.31,21.75,82.81,241.31,21.75,82.81,0.37,-0.1,-0.66,0.65,3.0,126.69,26.25,-112.62,126.69,26.25,-112.62,0.26,-0.02,-0.82,-0.51
3.0,237.38,18.62,82.75,237.38,18.62,82.75,0.35,-0.12,-0.65,0.66,3.0,119.81,29.06,-112.81,119.81,29.06,-112.81,0.29,-0.01,-0.82,-0.5
3.0,233.06,15.13,83.56,233.06,15.13,83.56,0.32,-0.14,-0.65,0.67,3.0,117.81,29.5,-112.19,117.81,29.5,-112.19,0.3,-0.0,-0.81,-0.5
3.0,229.5,12.38,83.56,229.5,12.38,83.56,0.31,-0.15,-0.65,0.68,3.0,116.31,29.69,-110.81,116.31,29.69,-110.81,0.31,0.01,-0.81,-0.5
3.0,228.81,10.5,84.19,228.81,10.5,84.19,0.31,-0.17,-0.65,0.67,3.0,111.56,31.87,-109.25,111.56,31.87,-109.25,0.34,0.01,-0.8,-0.5
3.0,228.81,8.44,86.5,228.81,8.44,86.5,0.3,-0.19,-0.66,0.66,3.0,109.44,33.0,-107.31,109.44,33.0,-107.31,0.35,0.01,-0.79,-0.5
3.0,227.88,7.5,88.5,227.88,7.5,88.5,0.29,-0.19,-0.67,0.65,3.0,111.5,31.81,-105.25,111.5,31.81,-105.25,0.35,0.02,-0.78,-0.51
3.0,226.69,8.5,88.94,226.69,8.5,88.94,0.28,-0.17,-0.68,0.66,3.0,110.69,32.38,-102.37,110.69,32.38,-102.37,0.36,0.02,-0.77,-0.53
3.0,225.06,8.94,89.81,225.06,8.94,89.81,0.27,-0.17,-0.69,0.65,3.0,109.0,33.69,-100.06,109.0,33.69,-100.06,0.38,0.02,-0.76,-0.53
3.0,225.5,8.94,92.0,225.5,8.94,92.0,0.27,-0.17,-0.7,0.64,3.0,110.62,33.0,-97.37,110.62,33.0,-97.37,0.38,0.02,-0.74,-0.55
3.0,226.25,9.63,93.0,226.25,9.63,93.0,0.27,-0.16,-0.71,0.63,3.0,112.12,32.44,-95.12,112.12,32.44,-95.12,0.38,0.02,-0.73,-0.57
3.0,226.44,10.56,93.81,226.44,10.56,93.81,0.27,-0.16,-0.72,0.62,3.0,110.87,33.31,-91.06,110.87,33.31,-91.06,0.4,0.01,-0.71,-0.58
3.0,227.38,11.63,95.25,227.38,11.63,95.25,0.27,-0.15,-0.72,0.61,3.0,111.44,33.25,-88.5,111.44,33.25,-88.5,0.4,0.01,-0.7,-0.6
3.0,229.69,13.56,96.12,229.69,13.56,96.12,0.28,-0.14,-0.73,0.61,3.0,114.37,32.5,-86.44,114.37,32.5,-86.44,0.39,-0.0,-0.68,-0.61
3.0,232.31,15.31,97.19,232.31,15.31,97.19,0.3,-0.14,-0.74,0.59,3.0,114.94,32.88,-84.25,114.94,32.88,-84.25,0.39,-0.01,-0.67,-0.63
3.0,237.88,19.0,98.0,237.88,19.0,98.0,0.32,-0.13,-0.74,0.58,3.0,118.31,32.25,-82.94,118.31,32.25,-82.94,0.37,-0.02,-0.67,-0.64
3.0,246.25,23.81,97.75,246.25,23.81,97.75,0.36,-0.12,-0.74,0.55,3.0,122.0,31.5,-82.06,122.0,31.5,-82.06,0.36,-0.04,-0.66,-0.66
3.0,259.75,32.5,95.75,259.75,32.5,95.75,0.43,-0.09,-0.73,0.52,3.0,122.69,31.94,-80.44,122.69,31.94,-80.44,0.36,-0.05,-0.65,-0.66
3.0,271.13,37.56,96.0,271.13,37.56,96.0,0.48,-0.1,-0.73,0.47,3.0,123.75,33.13,-81.44,123.75,33.13,-81.44,0.33,-0.07,-0.67,-0.66
3.0,283.69,39.0,94.25,283.69,39.0,94.25,0.54,-0.16,-0.71,0.42,3.0,133.88,29.25,-85.56,133.88,29.25,-85.56,0.29,-0.08,-0.68,-0.67
3.0,291.25,39.88,88.75,291.25,39.88,88.75,0.61,-0.2,-0.65,0.4,3.0,142.5,24.94,-88.75,142.5,24.94,-88.75,0.23,-0.08,-0.7,-0.68
3.0,294.5,38.69,77.44,294.5,38.69,77.44,0.66,-0.18,-0.6,0.42,3.0,145.31,22.87,-92.5,145.31,22.87,-92.5,0.21,-0.07,-0.72,-0.66
3.0,294.63,38.5,66.94,294.63,38.5,66.94,0.69,-0.16,-0.55,0.45,3.0,154.31,16.44,-101.31,154.31,16.44,-101.31,0.14,-0.05,-0.77,-0.62
3.0,294.94,36.88,56.0,294.94,36.88,56.0,0.73,-0.13,-0.49,0.47,3.0,162.88,10.13,-108.25,162.88,10.13,-108.25,0.09,-0.03,-0.81,-0.58
3.0,294.5,33.63,46.31,294.5,33.63,46.31,0.76,-0.11,-0.43,0.48,3.0,161.44,9.13,-114.25,161.44,9.13,-114.25,0.09,-0.01,-0.84,-0.54
3.0,295.94,29.25,39.88,295.94,29.25,39.88,0.78,-0.13,-0.37,0.49,3.0,155.56,10.56,-120.94,155.56,10.56,-120.94,0.1,-0.0,-0.87,-0.49
3.0,295.0,25.0,39.0,295.0,25.0,39.0,0.77,-0.14,-0.36,0.51,3.0,153.69,10.31,-124.62,153.69,10.31,-124.62,0.11,0.01,-0.88,-0.46
3.0,290.81,22.81,38.31,290.81,22.81,38.31,0.76,-0.13,-0.34,0.53,3.0,158.19,7.69,-127.0,158.19,7.69,-127.0,0.08,0.02,-0.89,-0.44
3.0,290.56,21.12,34.69,290.56,21.12,34.69,0.78,-0.12,-0.31,0.53,3.0,166.69,4.13,-126.5,166.69,4.13,-126.5,0.05,0.02,-0.89,-0.45
3.0,291.38,18.56,31.81,291.38,18.56,31.81,0.79,-0.12,-0.28,0.54,3.0,173.81,1.0,-126.56,173.81,1.0,-126.56,0.02,0.03,-0.89,-0.45
3.0,291.44,15.81,27.87,291.44,15.81,27.87,0.8,-0.11,-0.24,0.54,3.0,176.63,-0.31,-127.94,176.63,-0.31,-127.94,0.01,0.04,-0.9,-0.43
3.0,292.88,13.31,24.94,292.88,13.31,24.94,0.81,-0.11,-0.21,0.54,3.0,178.88,-1.63,-129.88,178.88,-1.63,-129.88,0.0,0.05,-0.91,-0.42
3.0,292.81,11.06,25.44,292.81,11.06,25.44,0.81,-0.13,-0.2,0.54,3.0,179.94,-3.06,-131.44,179.94,-3.06,-131.44,-0.0,0.07,-0.91,-0.4
3.0,293.13,8.88,25.06,293.13,8.88,25.06,0.82,-0.13,-0.18,0.53,3.0,350.81,-2.63,-135.94,350.81,-2.63,-135.94,0.01,0.08,-0.93,-0.36
3.0,294.25,8.5,21.56,294.25,8.5,21.56,0.82,-0.1,-0.16,0.54,3.0,350.38,-0.12,-140.19,350.38,-0.12,-140.19,0.03,0.08,-0.94,-0.33
3.0,293.19,9.31,18.25,293.19,9.31,18.25,0.82,-0.09,-0.15,0.54,3.0,349.5,-0.81,-144.06,349.5,-0.81,-144.06,0.01,0.09,-0.95,-0.3
3.0,293.19,8.31,18.06,293.19,8.31,18.06,0.82,-0.09,-0.14,0.54,3.0,347.31,-4.56,-148.31,347.31,-4.56,-148.31,-0.02,0.11,-0.96,-0.27
3.0,291.75,8.06,15.75,291.75,8.06,15.75,0.82,-0.06,-0.13,0.56,3.0,346.5,-4.94,-151.0,346.5,-4.94,-151.0,-0.01,0.11,-0.96,-0.24
3.0,290.0,8.13,13.13,290.0,8.13,13.13,0.81,-0.05,-0.12,0.57,3.0,347.44,-4.94,-153.94,347.44,-4.94,-153.94,-0.03,0.11,-0.97,-0.22
3.0,289.5,6.94,13.13,289.5,6.94,13.13,0.81,-0.06,-0.11,0.57,3.0,346.94,-8.88,-157.13,346.94,-8.88,-157.13,-0.07,0.11,-0.97,-0.2
3.0,288.81,6.13,13.31,288.81,6.13,13.31,0.81,-0.06,-0.11,0.58,3.0,347.5,-10.5,-159.25,347.5,-10.5,-159.25,-0.07,0.1,-0.97,-0.19
3.0,288.38,6.13,12.38,288.38,6.13,12.38,0.8,-0.05,-0.11,0.58,3.0,349.31,-10.06,-158.25,349.31,-10.06,-158.25,-0.08,0.09,-0.97,-0.2
3.0,287.75,6.25,12.31,287.75,6.25,12.31,0.8,-0.06,-0.11,0.59,3.0,349.31,-12.75,-157.75,349.31,-12.75,-157.75,-0.1,0.09,-0.97,-0.2
3.0,286.75,6.25,13.69,286.75,6.25,13.69,0.79,-0.06,-0.12,0.59,3.0,349.88,-14.13,-158.63,349.88,-14.13,-158.63,-0.11,0.08,-0.97,-0.19
3.0,286.44,6.5,13.25,286.44,6.5,13.25,0.8,-0.05,-0.11,0.59,3.0,351.0,-13.56,-160.25,351.0,-13.56,-160.25,-0.11,0.08,-0.98,-0.17
3.0,286.56,6.88,12.75,286.56,6.88,12.75,0.79,-0.05,-0.12,0.59,3.0,351.31,-13.19,-161.88,351.31,-13.19,-161.88,-0.1,0.07,-0.98,-0.16
3.0,286.5,6.56,13.69,286.5,6.56,13.69,0.79,-0.06,-0.12,0.59,3.0,351.44,-12.88,-162.94,351.44,-12.88,-162.94,-0.1,0.07,-0.98,-0.15
3.0,286.56,6.13,14.75,286.56,6.13,14.75,0.79,-0.07,-0.12,0.59,3.0,351.44,-12.38,-163.69,351.44,-12.38,-163.69,-0.1,0.07,-0.98,-0.15
3.0,287.0,6.75,15.81,287.0,6.75,15.81,0.8,-0.07,-0.13,0.59,3.0,351.31,-12.31,-164.31,351.31,-12.31,-164.31,-0.1,0.07,-0.98,-0.14
3.0,287.13,8.06,16.5,287.13,8.06,16.5,0.79,-0.07,-0.14,0.59,3.0,351.25,-12.5,-164.63,351.25,-12.5,-164.63,-0.1,0.07,-0.98,-0.14
3.0,287.25,7.06,17.62,287.25,7.06,17.62,0.78,-0.1,-0.15,0.6,3.0,351.19,-12.81,-165.06,351.19,-12.81,-165.06,-0.1,0.08,-0.98,-0.13
3.0,282.69,5.56,21.06,282.69,5.56,21.06,0.76,-0.11,-0.15,0.62,3.0,351.38,-12.69,-165.5,351.38,-12.69,-165.5,-0.1,0.07,-0.98,-0.13
3.0,281.06,5.44,21.19,281.06,5.44,21.19,0.76,-0.11,-0.15,0.62,3.0,351.94,-11.94,-165.88,351.94,-11.94,-165.88,-0.1,0.07,-0.98,-0.13
3.0,283.69,6.31,19.06,283.69,6.31,19.06,0.78,-0.09,-0.14,0.6,3.0,352.06,-11.88,-166.0,352.06,-11.88,-166.0,-0.1,0.07,-0.98,-0.13
3.0,285.06,6.63,17.44,285.06,6.63,17.44,0.78,-0.08,-0.14,0.6,3.0,352.0,-12.31,-166.06,352.0,-12.31,-166.06,-0.1,0.07,-0.98,-0.13
3.0,284.81,6.63,17.37,284.81,6.63,17.37,0.78,-0.08,-0.14,0.6,3.0,352.06,-12.19,-166.31,352.06,-12.19,-166.31,-0.1,0.07,-0.99,-0.12
3.0,285.38,6.19,17.06,285.38,6.19,17.06,0.79,-0.09,-0.13,0.6,3.0,352.38,-11.94,-166.56,352.38,-11.94,-166.56,-0.1,0.06,-0.99,-0.12
3.0,285.19,6.0,17.31,285.19,6.0,17.31,0.78,-0.08,-0.13,0.6,3.0,352.44,-12.0,-166.75,352.44,-12.0,-166.75,-0.1,0.06,-0.99,-0.12
3.0,284.88,6.5,16.69,284.88,6.5,16.69,0.78,-0.08,-0.13,0.6,3.0,352.5,-12.06,-166.81,352.5,-12.06,-166.81,-0.1,0.06,-0.99,-0.12
3.0,285.25,6.31,16.5,285.25,6.31,16.5,0.79,-0.08,-0.13,0.6,3.0,352.69,-11.81,-167.06,352.69,-11.81,-167.06,-0.1,0.06,-0.99,-0.12
3.0,285.31,6.13,16.5,285.31,6.13,16.5,0.79,-0.08,-0.13,0.6,3.0,352.69,-11.94,-167.38,352.69,-11.94,-167.38,-0.1,0.06,-0.99,-0.11
3.0,285.38,6.13,16.12,285.38,6.13,16.12,0.79,-0.08,-0.13,0.6,3.0,352.44,-12.38,-167.63,352.44,-12.38,-167.63,-0.1,0.07,-0.99,-0.11
3.0,285.25,5.88,16.31,285.25,5.88,16.31,0.79,-0.08,-0.13,0.6,3.0,352.5,-12.0,-167.88,352.5,-12.0,-167.88,-0.1,0.06,-0.99,-0.11
3.0,285.13,5.75,16.37,285.13,5.75,16.37,0.78,-0.08,-0.13,0.6,3.0,352.56,-11.63,-168.13,352.56,-11.63,-168.13,-0.1,0.06,-0.99,-0.11
3.0,283.69,5.31,16.44,283.69,5.31,16.44,0.77,-0.09,-0.12,0.62,3.0,352.38,-12.0,-168.5,352.38,-12.0,-168.5,-0.1,0.07,-0.99,-0.1
3.0,281.25,4.38,16.94,281.25,4.38,16.94,0.76,-0.09,-0.12,0.64,3.0,352.69,-11.44,-168.63,352.69,-11.44,-168.63,-0.09,0.06,-0.99,-0.1
3.0,277.25,4.06,18.0,277.25,4.06,18.0,0.73,-0.09,-0.13,0.66,3.0,353.06,-10.88,-168.69,353.06,-10.88,-168.69,-0.09,0.06,-0.99,-0.1
3.0,274.44,3.31,18.87,274.44,3.31,18.87,0.72,-0.1,-0.13,0.67,3.0,353.13,-10.75,-168.56,353.13,-10.75,-168.56,-0.09,0.06,-0.99,-0.1
3.0,272.5,2.5,20.12,272.5,2.5,20.12,0.71,-0.11,-0.14,0.69,3.0,353.31,-10.44,-168.63,353.31,-10.44,-168.63,-0.09,0.06,-0.99,-0.1
3.0,269.94,3.06,21.06,269.94,3.06,21.06,0.69,-0.11,-0.15,0.7,3.0,353.56,-9.81,-168.63,353.56,-9.81,-168.63,-0.08,0.06,-0.99,-0.1
3.0,268.44,3.5,22.5,268.44,3.5,22.5,0.68,-0.12,-0.17,0.7,3.0,354.0,-8.75,-168.31,354.0,-8.75,-168.31,-0.07,0.05,-0.99,-0.1
3.0,266.81,3.31,26.12,266.81,3.31,26.12,0.66,-0.14,-0.19,0.71,3.0,355.13,-6.69,-167.38,355.13,-6.69,-167.38,-0.05,0.04,-0.99,-0.11
3.0,265.13,4.94,31.62,265.13,4.94,31.62,0.65,-0.16,-0.25,0.7,3.0,356.06,-4.31,-166.38,356.06,-4.31,-166.38,-0.02,0.03,-0.99,-0.12
3.0,266.0,7.69,38.44,266.0,7.69,38.44,0.64,-0.19,-0.3,0.68,3.0,357.31,0.5,-164.44,357.31,0.5,-164.44,0.02,0.02,-0.99,-0.14
3.0,265.19,6.31,45.63,265.19,6.31,45.63,0.62,-0.23,-0.34,0.67,3.0,358.25,4.63,-160.63,358.25,4.63,-160.63,0.05,0.01,-0.98,-0.18
3.0,266.94,8.0,51.69,266.94,8.0,51.69,0.62,-0.24,-0.37,0.65,3.0,358.31,8.31,-154.81,358.31,8.31,-154.81,0.09,0.01,-0.97,-0.23
3.0,263.19,6.94,61.88,263.19,6.94,61.88,0.56,-0.29,-0.46,0.63,3.0,359.13,13.5,-149.25,359.13,13.5,-149.25,0.14,0.0,-0.95,-0.27
3.0,263.38,11.69,72.56,263.38,11.69,72.56,0.53,-0.29,-0.52,0.6,3.0,359.81,16.62,-145.5,359.81,16.62,-145.5,0.16,0.0,-0.94,-0.3
3.0,263.06,15.06,81.5,263.06,15.06,81.5,0.5,-0.29,-0.59,0.57,3.0,0.0,19.69,-140.81,0.0,19.69,-140.81,0.19,-0.0,-0.92,-0.33
3.0,264.88,16.56,91.87,264.88,16.56,91.87,0.47,-0.31,-0.65,0.51,3.0,116.0,23.87,-135.19,116.0,23.87,-135.19,0.24,-0.0,-0.9,-0.36
3.0,257.13,12.88,102.81,257.13,12.88,102.81,0.39,-0.33,-0.7,0.49,3.0,110.31,27.87,-130.69,110.31,27.87,-130.69,0.27,-0.0,-0.88,-0.38
3.0,241.88,12.0,111.81,241.88,12.0,111.81,0.29,-0.26,-0.79,0.48,3.0,107.62,30.31,-126.31,107.62,30.31,-126.31,0.3,0.0,-0.86,-0.41
3.0,214.5,6.63,112.25,214.5,6.63,112.25,0.17,-0.15,-0.82,0.53,3.0,109.06,30.69,-121.69,109.06,30.69,-121.69,0.31,0.01,-0.85,-0.43
3.0,202.38,14.0,103.87,202.38,14.0,103.87,0.12,0.04,-0.78,0.61,3.0,107.44,32.13,-117.56,107.44,32.13,-117.56,0.33,0.01,-0.83,-0.44
3.0,196.63,19.87,94.37,196.63,19.87,94.37,0.07,0.18,-0.67,0.72,3.0,104.62,33.25,-115.44,104.62,33.25,-115.44,0.35,0.02,-0.82,-0.45
3.0,195.19,29.5,78.75,195.19,29.5,78.75,0.14,0.27,-0.59,0.75,3.0,104.31,33.06,-114.0,104.31,33.06,-114.0,0.35,0.03,-0.82,-0.45
3.0,202.56,35.94,83.81,202.56,35.94,83.81,0.13,0.28,-0.64,0.71,3.0,103.06,33.56,-113.19,103.06,33.56,-113.19,0.36,0.04,-0.81,-0.45
3.0,196.06,31.56,93.69,196.06,31.56,93.69,0.09,0.31,-0.66,0.68,3.0,101.94,34.13,-113.69,101.94,34.13,-113.69,0.36,0.03,-0.82,-0.45
3.0,192.88,34.69,93.81,192.88,34.69,93.81,0.07,0.35,-0.63,0.69,3.0,104.44,32.56,-113.25,104.44,32.56,-113.25,0.35,0.04,-0.82,-0.46
3.0,188.38,34.81,86.5,188.38,34.81,86.5,0.05,0.36,-0.58,0.73,3.0,105.31,32.56,-111.81,105.31,32.56,-111.81,0.36,0.04,-0.81,-0.47
3.0,186.94,35.75,83.56,186.94,35.75,83.56,0.03,0.36,-0.58,0.73,3.0,105.06,33.63,-109.87,105.06,33.63,-109.87,0.37,0.03,-0.8,-0.48
3.0,181.56,30.94,90.12,181.56,30.94,90.12,0.0,0.36,-0.62,0.69,3.0,103.81,35.06,-108.25,103.81,35.06,-108.25,0.38,0.02,-0.79,-0.48
3.0,178.81,29.44,95.06,178.81,29.44,95.06,-0.01,0.38,-0.63,0.68,3.0,103.56,35.44,-106.81,103.56,35.44,-106.81,0.39,0.02,-0.78,-0.48
3.0,180.56,35.25,94.62,180.56,35.25,94.62,0.01,0.44,-0.58,0.69,3.0,103.94,35.75,-105.81,103.94,35.75,-105.81,0.38,0.02,-0.78,-0.5
3.0,182.06,43.31,96.12,182.06,43.31,96.12,0.0,0.52,-0.53,0.67,3.0,108.25,34.0,-104.06,108.25,34.0,-104.06,0.36,0.01,-0.77,-0.52
3.0,176.56,46.06,99.69,176.56,46.06,99.69,-0.02,0.58,-0.47,0.67,3.0,112.06,32.25,-101.56,112.06,32.25,-101.56,0.36,0.02,-0.76,-0.54
3.0,178.38,53.44,97.75,178.38,53.44,97.75,0.0,0.6,-0.41,0.69,3.0,112.62,31.81,-98.0,112.62,31.81,-98.0,0.37,0.02,-0.74,-0.56
3.0,183.63,59.75,90.69,183.63,59.75,90.69,0.03,0.6,-0.36,0.71,3.0,111.94,31.5,-93.12,111.94,31.5,-93.12,0.4,0.03,-0.71,-0.58
3.0,186.56,65.44,89.12,186.56,65.44,89.12,0.04,0.64,-0.31,0.71,3.0,109.19,32.38,-88.56,109.19,32.38,-88.56,0.42,0.04,-0.69,-0.58
3.0,183.81,68.31,92.31,183.81,68.31,92.31,0.03,0.66,-0.27,0.7,3.0,107.81,32.88,-86.19,107.81,32.88,-86.19,0.43,0.03,-0.68,-0.59
3.0,183.88,70.37,98.19,183.88,70.37,98.19,0.02,0.68,-0.27,0.69,3.0,108.06,33.31,-84.25,108.06,33.31,-84.25,0.43,0.03,-0.67,-0.6
3.0,182.38,67.87,102.62,182.38,67.87,102.62,0.01,0.68,-0.29,0.67,3.0,109.81,32.69,-82.62,109.81,32.69,-82.62,0.43,0.03,-0.67,-0.61
3.0,180.88,66.56,103.25,180.88,66.56,103.25,0.01,0.68,-0.28,0.68,3.0,110.12,32.25,-81.44,110.12,32.25,-81.44,0.43,0.03,-0.66,-0.62
3.0,180.5,68.94,103.81,180.5,68.94,103.81,-0.01,0.69,-0.26,0.67,3.0,110.0,31.81,-80.44,110.0,31.81,-80.44,0.43,0.03,-0.65,-0.62
3.0,174.31,65.69,106.12,174.31,65.69,106.12,-0.04,0.7,-0.26,0.66,3.0,109.87,31.12,-79.25,109.87,31.12,-79.25,0.44,0.04,-0.64,-0.62
3.0,168.88,64.06,107.62,168.88,64.06,107.62,-0.07,0.72,-0.23,0.65,3.0,108.12,31.06,-78.19,108.12,31.06,-78.19,0.45,0.05,-0.64,-0.62
3.0,164.56,65.19,110.87,164.56,65.19,110.87,-0.1,0.74,-0.19,0.64,3.0,106.0,30.87,-77.56,106.0,30.87,-77.56,0.47,0.07,-0.63,-0.61
3.0,156.88,64.69,114.06,156.88,64.69,114.06,-0.13,0.75,-0.16,0.63,3.0,103.87,30.69,-76.87,103.87,30.69,-76.87,0.48,0.08,-0.63,-0.61
3.0,152.94,68.81,117.0,152.94,68.81,117.0,-0.16,0.76,-0.05,0.63,3.0,102.37,30.37,-76.19,102.37,30.37,-76.19,0.49,0.09,-0.62,-0.6
3.0,149.44,72.62,117.25,149.44,72.62,117.25,-0.19,0.75,0.02,0.63,3.0,102.5,29.19,-76.25,102.5,29.19,-76.25,0.49,0.1,-0.62,-0.61
3.0,142.88,77.62,119.56,142.88,77.62,119.56,-0.22,0.72,0.15,0.64,3.0,102.12,28.19,-75.56,102.12,28.19,-75.56,0.49,0.11,-0.61,-0.61
3.0,141.19,86.87,177.69,141.19,86.87,177.69,-0.23,0.68,0.22,0.66,3.0,100.69,27.87,-74.19,100.69,27.87,-74.19,0.51,0.12,-0.6,-0.61
3.0,139.75,86.25,3.31,139.75,86.25,3.31,-0.25,0.67,0.2,0.67,3.0,99.69,27.69,-72.81,99.69,27.69,-72.81,0.51,0.12,-0.6,-0.61
2.0,138.25,79.94,70.56,138.25,79.94,70.56,-0.26,0.67,0.14,0.68,3.0,99.94,27.44,-72.0,99.94,27.44,-72.0,0.51,0.12,-0.59,-0.61
2.0,131.69,75.25,72.62,131.69,75.25,72.62,-0.3,0.67,0.12,0.67,3.0,100.37,27.37,-71.81,100.37,27.37,-71.81,0.51,0.12,-0.59,-0.61
2.0,127.31,72.69,70.12,127.31,72.69,70.12,-0.33,0.66,0.12,0.66,3.0,100.69,27.25,-71.87,100.69,27.25,-71.87,0.51,0.12,-0.59,-0.61
2.0,122.25,68.56,72.06,122.25,68.56,72.06,-0.36,0.66,0.1,0.65,3.0,100.87,26.87,-72.31,100.87,26.87,-72.31,0.51,0.12,-0.59,-0.61
2.0,117.19,66.12,72.37,117.19,66.12,72.37,-0.4,0.65,0.11,0.64,3.0,100.81,26.44,-72.81,100.81,26.44,-72.81,0.51,0.13,-0.59,-0.61
2.0,113.75,66.19,65.44,113.75,66.19,65.44,-0.42,0.63,0.13,0.64,3.0,100.5,26.25,-73.5,100.5,26.25,-73.5,0.51,0.13,-0.6,-0.61
2.0,112.0,65.0,62.13,112.0,65.0,62.13,-0.44,0.62,0.12,0.64,3.0,101.62,25.81,-74.19,101.62,25.81,-74.19,0.49,0.13,-0.6,-0.61
2.0,110.06,63.44,63.31,110.06,63.44,63.31,-0.45,0.62,0.12,0.63,3.0,103.0,24.94,-74.87,103.0,24.94,-74.87,0.49,0.14,-0.6,-0.61
2.0,107.75,62.56,63.0,107.75,62.56,63.0,-0.47,0.61,0.13,0.62,3.0,102.06,24.62,-75.06,102.06,24.62,-75.06,0.5,0.15,-0.6,-0.61
2.0,104.12,62.88,59.69,104.12,62.88,59.69,-0.48,0.6,0.16,0.62,3.0,100.44,24.81,-74.31,100.44,24.81,-74.31,0.51,0.15,-0.59,-0.61
2.0,103.5,63.0,58.44,103.5,63.0,58.44,-0.49,0.6,0.15,0.61,3.0,100.31,24.5,-73.62,100.31,24.5,-73.62,0.51,0.15,-0.59,-0.61
2.0,101.19,61.75,59.94,101.19,61.75,59.94,-0.5,0.6,0.16,0.61,3.0,100.44,24.06,-73.87,100.44,24.06,-73.87,0.51,0.16,-0.59,-0.61
2.0,100.12,61.81,58.38,100.12,61.81,58.38,-0.51,0.59,0.16,0.61,3.0,99.56,23.87,-73.44,99.56,23.87,-73.44,0.51,0.16,-0.59,-0.61
2.0,100.0,61.25,59.31,100.0,61.25,59.31,-0.51,0.59,0.16,0.6,3.0,97.62,23.81,-73.19,97.62,23.81,-73.19,0.52,0.17,-0.58,-0.6
2.0,100.5,61.88,59.13,100.5,61.88,59.13,-0.5,0.59,0.16,0.61,3.0,94.87,24.31,-73.5,94.87,24.31,-73.5,0.54,0.18,-0.58,-0.58
2.0,102.06,62.75,57.38,102.06,62.75,57.38,-0.5,0.59,0.16,0.61,3.0,92.75,25.0,-74.44,92.75,25.0,-74.44,0.54,0.19,-0.59,-0.57
2.0,104.37,64.37,52.81,104.37,64.37,52.81,-0.49,0.58,0.18,0.63,3.0,92.25,24.5,-75.25,92.25,24.5,-75.25,0.55,0.2,-0.59,-0.56
2.0,106.5,65.69,48.75,106.5,65.69,48.75,-0.48,0.57,0.19,0.64,3.0,91.44,23.69,-75.19,91.44,23.69,-75.19,0.55,0.21,-0.58,-0.56
2.0,107.87,66.75,47.44,107.87,66.75,47.44,-0.47,0.57,0.19,0.64,3.0,91.56,22.94,-76.19,91.56,22.94,-76.19,0.54,0.22,-0.59,-0.56
2.0,107.62,67.12,46.69,107.62,67.12,46.69,-0.47,0.57,0.2,0.64,3.0,93.5,22.31,-77.19,93.5,22.31,-77.19,0.53,0.22,-0.59,-0.57
2.0,108.25,68.0,42.88,108.25,68.0,42.88,-0.47,0.56,0.21,0.65,3.0,95.87,22.0,-78.31,95.87,22.0,-78.31,0.51,0.21,-0.61,-0.57
2.0,109.44,67.56,41.19,109.44,67.56,41.19,-0.46,0.56,0.2,0.66,3.0,98.62,21.75,-80.5,98.62,21.75,-80.5,0.49,0.21,-0.62,-0.58
2.0,110.56,66.69,41.5,110.56,66.69,41.5,-0.46,0.56,0.19,0.66,3.0,100.25,21.94,-83.5,100.25,21.94,-83.5,0.47,0.2,-0.65,-0.56
2.0,109.56,66.12,39.38,109.56,66.12,39.38,-0.47,0.55,0.2,0.66,3.0,97.37,25.75,-88.12,97.37,25.75,-88.12,0.47,0.19,-0.67,-0.54
2.0,108.69,66.37,36.88,108.69,66.37,36.88,-0.48,0.54,0.21,0.66,3.0,99.12,27.81,-90.56,99.12,27.81,-90.56,0.46,0.15,-0.69,-0.54
2.0,106.94,66.06,40.13,106.94,66.06,40.13,-0.48,0.55,0.2,0.65,3.0,104.56,27.25,-90.37,104.56,27.25,-90.37,0.43,0.13,-0.7,-0.56
2.0,106.44,65.25,43.88,106.44,65.25,43.88,-0.48,0.56,0.19,0.65,3.0,106.62,27.12,-90.25,106.62,27.12,-90.25,0.42,0.12,-0.7,-0.57
2.0,108.44,66.69,45.56,108.44,66.69,45.56,-0.46,0.57,0.2,0.65,3.0,105.19,26.56,-90.75,105.19,26.56,-90.75,0.43,0.13,-0.7,-0.56
2.0,106.44,68.94,42.56,106.44,68.94,42.56,-0.48,0.56,0.23,0.64,3.0,102.94,26.12,-91.81,102.94,26.12,-91.81,0.44,0.16,-0.7,-0.54
2.0,112.75,73.44,25.5,112.75,73.44,25.5,-0.43,0.56,0.26,0.65,3.0,99.0,25.87,-93.37,99.0,25.87,-93.37,0.45,0.19,-0.7,-0.52
2.0,113.69,75.19,43.31,113.69,75.19,43.31,-0.42,0.59,0.25,0.64,3.0,96.31,26.0,-94.06,96.31,26.0,-94.06,0.46,0.2,-0.7,-0.51
2.0,114.87,77.75,29.94,114.87,77.75,29.94,-0.41,0.57,0.28,0.65,3.0,96.06,26.0,-94.25,96.06,26.0,-94.25,0.45,0.2,-0.7,-0.51
2.0,112.56,76.31,31.62,112.56,76.31,31.62,-0.43,0.57,0.28,0.64,3.0,97.5,25.62,-94.62,97.5,25.62,-94.62,0.45,0.19,-0.71,-0.51
2.0,110.81,76.69,29.69,110.81,76.69,29.69,-0.44,0.56,0.3,0.64,3.0,99.56,24.75,-95.25,99.56,24.75,-95.25,0.43,0.2,-0.71,-0.52
2.0,108.87,77.06,26.5,108.87,77.06,26.5,-0.45,0.55,0.31,0.63,3.0,99.5,24.37,-96.31,99.5,24.37,-96.31,0.43,0.2,-0.71,-0.51
2.0,108.37,76.81,24.5,108.37,76.81,24.5,-0.46,0.54,0.32,0.63,3.0,98.12,24.81,-96.62,98.12,24.81,-96.62,0.44,0.2,-0.71,-0.51
2.0,107.62,75.0,26.06,107.62,75.0,26.06,-0.47,0.54,0.3,0.63,3.0,97.81,24.87,-96.44,97.81,24.87,-96.44,0.44,0.21,-0.71,-0.51
2.0,106.31,72.31,29.31,106.31,72.31,29.31,-0.48,0.53,0.28,0.64,3.0,98.19,24.56,-96.12,98.19,24.56,-96.12,0.44,0.21,-0.71,-0.51
2.0,105.69,70.19,30.56,105.69,70.19,30.56,-0.49,0.53,0.26,0.64,3.0,98.19,24.44,-95.44,98.19,24.44,-95.44,0.44,0.21,-0.71,-0.51
2.0,106.12,68.75,29.69,106.12,68.75,29.69,-0.49,0.52,0.25,0.65,3.0,98.5,23.94,-95.0,98.5,23.94,-95.0,0.44,0.21,-0.7,-0.51
2.0,106.37,67.0,28.75,106.37,67.0,28.75,-0.49,0.52,0.24,0.66,3.0,97.94,23.94,-94.19,97.94,23.94,-94.19,0.45,0.21,-0.7,-0.52
2.0,105.12,64.0,29.31,105.12,64.0,29.31,-0.51,0.5,0.22,0.66,3.0,97.37,24.31,-93.12,97.37,24.31,-93.12,0.46,0.21,-0.69,-0.52
2.0,104.44,61.25,30.19,104.44,61.25,30.19,-0.51,0.49,0.21,0.67,3.0,97.69,24.25,-92.19,97.69,24.25,-92.19,0.46,0.21,-0.69,-0.53
2.0,114.75,61.13,13.25,114.75,61.13,13.25,-0.47,0.45,0.21,0.73,3.0,98.25,23.75,-91.56,98.25,23.75,-91.56,0.46,0.21,-0.68,-0.53
2.0,113.19,55.88,13.75,113.19,55.88,13.75,-0.48,0.43,0.19,0.74,3.0,98.31,23.56,-90.94,98.31,23.56,-90.94,0.46,0.21,-0.68,-0.53
2.0,113.5,51.69,12.44,113.5,51.69,12.44,-0.49,0.41,0.18,0.75,3.0,98.31,23.44,-90.37,98.31,23.44,-90.37,0.46,0.21,-0.68,-0.53
2.0,113.06,48.25,11.19,113.06,48.25,11.19,-0.5,0.38,0.17,0.76,3.0,98.25,23.37,-89.69,98.25,23.37,-89.69,0.46,0.21,-0.67,-0.54
3.0,112.69,45.06,9.56,112.69,45.06,9.56,-0.51,0.36,0.16,0.77,3.0,98.44,23.06,-88.94,98.44,23.06,-88.94,0.47,0.21,-0.67,-0.54
3.0,112.75,42.19,8.94,112.75,42.19,8.94,-0.51,0.34,0.15,0.77,3.0,98.81,22.5,-88.25,98.81,22.5,-88.25,0.47,0.22,-0.66,-0.54
3.0,113.31,40.75,8.44,113.31,40.75,8.44,-0.51,0.32,0.14,0.78,3.0,98.94,22.12,-87.87,98.94,22.12,-87.87,0.47,0.22,-0.66,-0.55
3.0,114.19,39.44,7.38,114.19,39.44,7.38,-0.51,0.31,0.14,0.79,3.0,99.56,21.12,-87.62,99.56,21.12,-87.62,0.46,0.23,-0.65,-0.55
3.0,115.19,39.5,6.19,115.19,39.5,6.19,-0.5,0.31,0.15,0.79,3.0,98.37,19.62,-88.37,98.37,19.62,-88.37,0.47,0.26,-0.65,-0.53
3.0,115.06,40.06,4.75,115.06,40.06,4.75,-0.5,0.31,0.16,0.79,3.0,92.87,21.0,-91.06,92.87,21.0,-91.06,0.48,0.28,-0.66,-0.5
3.0,114.69,40.81,3.25,114.69,40.81,3.25,-0.51,0.31,0.17,0.79,3.0,94.0,19.12,-93.69,94.0,19.12,-93.69,0.46,0.3,-0.67,-0.5
3.0,114.19,41.94,1.94,114.19,41.94,1.94,-0.51,0.31,0.19,0.78,3.0,98.37,16.44,-95.69,98.37,16.44,-95.69,0.43,0.31,-0.68,-0.51
3.0,113.25,43.44,1.12,113.25,43.44,1.12,-0.51,0.31,0.2,0.78,3.0,101.25,15.06,-97.19,101.25,15.06,-97.19,0.41,0.31,-0.69,-0.51
3.0,113.25,45.13,-0.25,113.25,45.13,-0.25,-0.51,0.32,0.21,0.77,3.0,103.94,13.81,-98.5,103.94,13.81,-98.5,0.4,0.31,-0.69,-0.52
3.0,114.56,46.25,-0.5,114.56,46.25,-0.5,-0.5,0.33,0.22,0.77,3.0,107.5,12.0,-99.56,107.5,12.0,-99.56,0.38,0.31,-0.7,-0.52
3.0,117.56,47.56,-2.38,117.56,47.56,-2.38,-0.47,0.34,0.22,0.78,3.0,110.44,10.56,-100.62,110.44,10.56,-100.62,0.36,0.31,-0.7,-0.53
3.0,117.06,48.38,-3.5,117.06,48.38,-3.5,-0.48,0.34,0.24,0.77,3.0,112.5,9.5,-101.5,112.5,9.5,-101.5,0.35,0.31,-0.71,-0.53
3.0,116.31,49.13,-4.44,116.31,49.13,-4.44,-0.48,0.34,0.24,0.77,3.0,115.56,8.25,-101.87,115.56,8.25,-101.87,0.33,0.31,-0.71,-0.54
3.0,116.75,49.63,-5.31,116.75,49.63,-5.31,-0.48,0.34,0.25,0.77,3.0,119.94,6.31,-101.56,119.94,6.31,-101.56,0.31,0.31,-0.71,-0.55
3.0,116.5,50.19,-6.06,116.5,50.19,-6.06,-0.48,0.34,0.26,0.77,3.0,124.0,5.25,-100.87,124.0,5.25,-100.87,0.3,0.29,-0.71,-0.57
3.0,116.19,50.44,-6.81,116.19,50.44,-6.81,-0.48,0.34,0.26,0.77,3.0,126.69,5.31,-99.37,126.69,5.31,-99.37,0.28,0.27,-0.71,-0.58
3.0,115.44,50.5,-6.13,115.44,50.5,-6.13,-0.48,0.34,0.26,0.76,3.0,131.5,3.63,-102.25,131.5,3.63,-102.25,0.25,0.27,-0.73,-0.57
3.0,114.81,50.13,-4.69,114.81,50.13,-4.69,-0.49,0.34,0.25,0.76,3.0,135.75,1.75,-103.87,135.75,1.75,-103.87,0.22,0.27,-0.74,-0.57
3.0,114.37,49.63,-3.81,114.37,49.63,-3.81,-0.49,0.34,0.25,0.76,3.0,141.06,-0.75,-104.37,141.06,-0.75,-104.37,0.2,0.28,-0.74,-0.58
3.0,113.87,48.69,-3.31,113.87,48.69,-3.31,-0.5,0.33,0.24,0.76,3.0,145.94,-3.06,-105.56,145.94,-3.06,-105.56,0.17,0.28,-0.75,-0.58
3.0,112.81,47.38,-2.06,112.81,47.38,-2.06,-0.51,0.33,0.23,0.76,3.0,151.38,-6.0,-107.19,151.38,-6.0,-107.19,0.14,0.29,-0.75,-0.57
3.0,112.06,46.06,-1.31,112.06,46.06,-1.31,-0.51,0.32,0.23,0.76,3.0,155.06,-8.25,-109.25,155.06,-8.25,-109.25,0.12,0.3,-0.76,-0.56
3.0,111.75,45.31,-2.25,111.75,45.31,-2.25,-0.52,0.31,0.23,0.76,3.0,156.25,-8.88,-110.87,156.25,-8.88,-110.87,0.11,0.3,-0.77,-0.56
3.0,111.31,45.06,-3.94,111.31,45.06,-3.94,-0.52,0.3,0.24,0.76,3.0,158.5,-10.0,-111.87,158.5,-10.0,-111.87,0.1,0.3,-0.77,-0.55
3.0,110.87,44.94,-4.56,110.87,44.94,-4.56,-0.52,0.3,0.24,0.76,3.0,160.75,-10.81,-113.44,160.75,-10.81,-113.44,0.08,0.31,-0.78,-0.54
3.0,110.62,45.0,-3.81,110.62,45.0,-3.81,-0.52,0.3,0.24,0.76,3.0,166.13,-13.25,-115.0,166.13,-13.25,-115.0,0.06,0.31,-0.78,-0.54
3.0,111.37,44.38,-4.0,111.37,44.38,-4.0,-0.52,0.29,0.24,0.77,3.0,171.38,-15.81,-116.87,171.38,-15.81,-116.87,0.04,0.32,-0.79,-0.53
3.0,112.5,43.75,-5.31,112.5,43.75,-5.31,-0.51,0.29,0.24,0.77,3.0,170.81,-15.56,-119.0,170.81,-15.56,-119.0,0.04,0.32,-0.79,-0.51
3.0,113.87,43.38,-7.63,113.87,43.38,-7.63,-0.51,0.28,0.25,0.78,3.0,170.5,-15.44,-120.12,170.5,-15.44,-120.12,0.04,0.33,-0.8,-0.51
3.0,115.19,42.13,-9.94,115.19,42.13,-9.94,-0.5,0.26,0.25,0.79,3.0,174.31,-17.56,-120.94,174.31,-17.56,-120.94,0.02,0.34,-0.79,-0.5
3.0,116.62,40.5,-10.75,116.62,40.5,-10.75,-0.49,0.25,0.24,0.8,3.0,174.5,-17.75,-122.25,174.5,-17.75,-122.25,0.03,0.35,-0.8,-0.49
3.0,117.69,39.19,-9.88,117.69,39.19,-9.88,-0.48,0.25,0.23,0.81,3.0,173.75,-17.37,-122.37,173.75,-17.37,-122.37,0.03,0.35,-0.8,-0.49
3.0,118.06,38.5,-7.94,118.06,38.5,-7.94,-0.49,0.26,0.21,0.81,3.0,176.44,-18.69,-121.87,176.44,-18.69,-121.87,0.02,0.35,-0.79,-0.5
3.0,118.25,38.75,-5.69,118.25,38.75,-5.69,-0.48,0.27,0.2,0.81,3.0,179.13,-19.94,-121.69,179.13,-19.94,-121.69,0.0,0.35,-0.79,-0.5
3.0,119.25,38.63,-5.69,119.25,38.63,-5.69,-0.47,0.26,0.21,0.81,3.0,182.13,-21.37,-121.5,182.13,-21.37,-121.5,-0.01,0.35,-0.79,-0.51
3.0,120.25,38.5,-7.5,120.25,38.5,-7.5,-0.47,0.26,0.21,0.82,3.0,182.69,-21.87,-121.37,182.69,-21.87,-121.37,-0.01,0.35,-0.79,-0.51
3.0,121.81,37.63,-7.69,121.81,37.63,-7.69,-0.46,0.26,0.21,0.83,3.0,182.56,-21.75,-121.5,182.56,-21.75,-121.5,-0.01,0.35,-0.79,-0.51
3.0,123.5,36.38,-7.06,123.5,36.38,-7.06,-0.45,0.25,0.19,0.84,3.0,183.5,-21.75,-121.5,183.5,-21.75,-121.5,-0.02,0.34,-0.79,-0.51
3.0,125.12,35.0,-5.63,125.12,35.0,-5.63,-0.44,0.25,0.17,0.85,3.0,179.25,-17.5,-121.37,179.25,-17.5,-121.37,0.0,0.31,-0.81,-0.5
3.0,125.75,34.06,-4.94,125.75,34.06,-4.94,-0.43,0.24,0.16,0.85,3.0,181.81,-18.19,-122.44,181.81,-18.19,-122.44,-0.01,0.3,-0.81,-0.5
3.0,126.12,33.75,-4.0,126.12,33.75,-4.0,-0.43,0.25,0.16,0.85,3.0,186.19,-20.31,-123.44,186.19,-20.31,-123.44,-0.03,0.31,-0.81,-0.49
3.0,126.19,34.31,-3.63,126.19,34.31,-3.63,-0.43,0.25,0.16,0.85,3.0,186.0,-19.94,-124.25,186.0,-19.94,-124.25,-0.03,0.31,-0.82,-0.48
3.0,126.87,35.19,-3.75,126.87,35.19,-3.75,-0.42,0.26,0.16,0.85,3.0,189.0,-21.25,-122.5,189.0,-21.25,-122.5,-0.04,0.3,-0.81,-0.5
3.0,128.0,36.13,-4.69,128.0,36.13,-4.69,-0.41,0.26,0.17,0.85,3.0,195.13,-24.81,-119.81,195.13,-24.81,-119.81,-0.07,0.3,-0.8,-0.52
3.0,129.38,36.94,-6.75,129.38,36.94,-6.75,-0.4,0.27,0.19,0.86,3.0,191.88,-23.62,-117.87,191.88,-23.62,-117.87,-0.06,0.3,-0.79,-0.53
3.0,130.38,37.31,-9.44,130.38,37.31,-9.44,-0.39,0.26,0.2,0.86,3.0,187.38,-21.75,-115.94,187.38,-21.75,-115.94,-0.04,0.29,-0.79,-0.54
3.0,131.0,37.38,-10.06,131.0,37.38,-10.06,-0.39,0.26,0.2,0.86,3.0,192.19,-24.37,-115.37,192.19,-24.37,-115.37,-0.06,0.29,-0.78,-0.55
3.0,131.44,37.5,-10.0,131.44,37.5,-10.0,-0.39,0.26,0.2,0.86,3.0,188.38,-22.69,-118.19,188.38,-22.69,-118.19,-0.04,0.31,-0.79,-0.53
3.0,131.94,37.69,-10.63,131.94,37.69,-10.63,-0.38,0.26,0.21,0.86,3.0,199.81,-27.0,-124.56,199.81,-27.0,-124.56,-0.09,0.32,-0.81,-0.49
3.0,132.56,37.81,-11.94,132.56,37.81,-11.94,-0.38,0.26,0.21,0.86,3.0,213.38,-34.31,-126.37,213.38,-34.31,-126.37,-0.15,0.35,-0.79,-0.48
3.0,132.88,38.0,-13.06,132.88,38.0,-13.06,-0.37,0.26,0.22,0.86,3.0,220.94,-38.13,-128.5,220.94,-38.13,-128.5,-0.18,0.36,-0.78,-0.47
3.0,133.25,38.06,-13.75,133.25,38.06,-13.75,-0.37,0.26,0.22,0.86,3.0,228.56,-42.38,-130.06,228.56,-42.38,-130.06,-0.21,0.37,-0.77,-0.47
3.0,133.5,38.25,-13.56,133.5,38.25,-13.56,-0.37,0.27,0.22,0.86,3.0,234.94,-45.88,-131.69,234.94,-45.88,-131.69,-0.24,0.38,-0.76,-0.46
3.0,133.94,38.5,-13.63,133.94,38.5,-13.63,-0.37,0.27,0.22,0.86,3.0,241.44,-49.31,-134.25,241.44,-49.31,-134.25,-0.27,0.4,-0.76,-0.45
3.0,134.38,38.81,-14.56,134.38,38.81,-14.56,-0.36,0.27,0.23,0.86,3.0,245.38,-52.88,-135.25,245.38,-52.88,-135.25,-0.29,0.41,-0.74,-0.45
3.0,134.5,39.31,-15.13,134.5,39.31,-15.13,-0.36,0.27,0.23,0.86,3.0,251.25,-55.56,-139.25,251.25,-55.56,-139.25,-0.31,0.43,-0.73,-0.43
3.0,134.5,39.75,-14.88,134.5,39.75,-14.88,-0.36,0.28,0.23,0.86,3.0,253.88,-55.88,-141.25,253.88,-55.88,-141.25,-0.32,0.43,-0.73,-0.42
3.0,134.63,39.88,-14.75,134.63,39.88,-14.75,-0.36,0.28,0.23,0.86,3.0,257.69,-57.25,-141.94,257.69,-57.25,-141.94,-0.34,0.42,-0.73,-0.42
3.0,134.69,40.0,-15.19,134.69,40.0,-15.19,-0.36,0.28,0.23,0.86,3.0,262.0,-58.13,-142.56,262.0,-58.13,-142.56,-0.35,0.4,-0.74,-0.41
3.0,134.69,40.38,-15.69,134.69,40.38,-15.69,-0.36,0.28,0.24,0.86,3.0,261.75,-59.75,-139.5,261.75,-59.75,-139.5,-0.36,0.4,-0.73,-0.42
3.0,135.25,40.56,-14.81,135.25,40.56,-14.81,-0.35,0.28,0.23,0.86,3.0,264.25,-61.19,-139.75,264.25,-61.19,-139.75,-0.38,0.39,-0.73,-0.42
3.0,135.31,40.69,-14.88,135.31,40.69,-14.88,-0.35,0.28,0.23,0.86,3.0,265.56,-60.25,-140.44,265.56,-60.25,-140.44,-0.38,0.37,-0.75,-0.4
3.0,135.44,40.75,-15.13,135.44,40.75,-15.13,-0.35,0.29,0.23,0.86,3.0,272.0,-60.06,-143.75,272.0,-60.06,-143.75,-0.39,0.36,-0.76,-0.38
3.0,135.94,41.13,-14.5,135.94,41.13,-14.5,-0.35,0.29,0.22,0.86,3.0,277.0,-62.13,-147.19,277.0,-62.13,-147.19,-0.42,0.37,-0.75,-0.36
3.0,136.5,42.13,-12.75,136.5,42.13,-12.75,-0.34,0.31,0.21,0.86,3.0,281.5,-63.88,-152.44,281.5,-63.88,-152.44,-0.43,0.37,-0.75,-0.34
3.0,137.06,43.31,-10.25,137.06,43.31,-10.25,-0.34,0.32,0.2,0.86,3.0,283.88,-64.44,-151.81,283.88,-64.44,-151.81,-0.44,0.36,-0.75,-0.34
3.0,137.38,44.13,-9.31,137.38,44.13,-9.31,-0.33,0.33,0.2,0.86,3.0,285.19,-65.31,-150.0,285.19,-65.31,-150.0,-0.44,0.34,-0.76,-0.34
3.0,137.56,44.13,-9.88,137.56,44.13,-9.88,-0.34,0.33,0.2,0.86,3.0,285.0,-63.56,-149.75,285.0,-63.56,-149.75,-0.45,0.33,-0.76,-0.33
3.0,136.81,44.75,-8.44,136.81,44.75,-8.44,-0.34,0.33,0.19,0.86,3.0,289.0,-65.62,-151.0,289.0,-65.62,-151.0,-0.47,0.32,-0.76,-0.33
3.0,136.25,44.75,-8.13,136.25,44.75,-8.13,-0.34,0.33,0.19,0.86,3.0,291.38,-66.87,-151.25,291.38,-66.87,-151.25,-0.48,0.31,-0.76,-0.32
3.0,136.06,44.5,-8.5,136.06,44.5,-8.5,-0.35,0.33,0.2,0.86,3.0,292.5,-67.75,-151.06,292.5,-67.75,-151.06,-0.48,0.31,-0.75,-0.32
3.0,136.06,44.44,-8.56,136.06,44.44,-8.56,-0.34,0.33,0.19,0.86,3.0,292.5,-69.0,-149.56,292.5,-69.0,-149.56,-0.49,0.31,-0.74,-0.33
3.0,136.69,44.69,-7.94,136.69,44.69,-7.94,-0.34,0.34,0.19,0.86,3.0,293.25,-71.31,-147.94,293.25,-71.31,-147.94,-0.51,0.31,-0.73,-0.33
3.0,137.25,44.75,-7.69,137.25,44.75,-7.69,-0.34,0.34,0.19,0.86,3.0,294.81,-71.81,-148.38,294.81,-71.81,-148.38,-0.51,0.31,-0.73,-0.32
3.0,137.5,44.44,-7.69,137.5,44.44,-7.69,-0.33,0.33,0.19,0.86,3.0,297.25,-71.87,-150.19,297.25,-71.87,-150.19,-0.52,0.3,-0.74,-0.31
3.0,138.19,43.88,-8.19,138.19,43.88,-8.19,-0.33,0.33,0.19,0.87,3.0,299.13,-73.06,-150.13,299.13,-73.06,-150.13,-0.53,0.29,-0.73,-0.31
3.0,138.25,42.88,-9.19,138.25,42.88,-9.19,-0.33,0.32,0.19,0.87,3.0,298.63,-74.5,-148.13,298.63,-74.5,-148.13,-0.54,0.3,-0.72,-0.32
3.0,138.63,41.69,-9.88,138.63,41.69,-9.88,-0.33,0.31,0.19,0.87,3.0,297.56,-75.25,-147.19,297.56,-75.25,-147.19,-0.53,0.31,-0.72,-0.33
3.0,139.0,40.94,-9.75,139.0,40.94,-9.75,-0.33,0.3,0.19,0.88,3.0,296.06,-74.62,-147.5,296.06,-74.62,-147.5,-0.53,0.31,-0.72,-0.33
3.0,139.19,40.56,-9.69,139.19,40.56,-9.69,-0.33,0.3,0.19,0.88,3.0,295.13,-74.06,-148.13,295.13,-74.06,-148.13,-0.52,0.32,-0.72,-0.33
3.0,139.44,40.31,-9.81,139.44,40.31,-9.81,-0.32,0.3,0.19,0.88,3.0,294.75,-74.37,-147.88,294.75,-74.37,-147.88,-0.52,0.32,-0.71,-0.34
3.0,139.5,40.06,-10.0,139.5,40.06,-10.0,-0.32,0.3,0.19,0.88,3.0,294.19,-74.81,-147.13,294.19,-74.81,-147.13,-0.53,0.33,-0.71,-0.34
3.0,139.75,39.94,-10.0,139.75,39.94,-10.0,-0.32,0.3,0.18,0.88,3.0,293.81,-76.06,-144.44,293.81,-76.06,-144.44,-0.54,0.33,-0.7,-0.35
3.0,140.0,39.88,-9.75,140.0,39.88,-9.75,-0.32,0.3,0.18,0.88,3.0,293.81,-78.37,-137.94,293.81,-78.37,-137.94,-0.55,0.32,-0.68,-0.36
3.0,140.13,39.81,-9.63,140.13,39.81,-9.63,-0.32,0.3,0.18,0.88,3.0,293.63,-79.81,-129.94,293.63,-79.81,-129.94,-0.56,0.32,-0.67,-0.37
3.0,140.19,39.81,-9.81,140.19,39.81,-9.81,-0.32,0.3,0.18,0.88,3.0,293.44,-80.94,-120.56,293.44,-80.94,-120.56,-0.57,0.32,-0.66,-0.38
3.0,140.19,39.88,-10.0,140.19,39.88,-10.0,-0.32,0.3,0.18,0.88,3.0,292.94,-82.56,-102.94,292.94,-82.56,-102.94,-0.59,0.32,-0.63,-0.39
3.0,140.25,40.0,-9.94,140.25,40.0,-9.94,-0.32,0.3,0.18,0.88,3.0,292.25,-83.62,-6.13,292.25,-83.62,-6.13,-0.6,0.33,-0.61,-0.4
3.0,140.63,39.81,-9.94,140.63,39.81,-9.94,-0.32,0.3,0.18,0.88,3.0,291.5,-83.56,-5.31,291.5,-83.56,-5.31,-0.6,0.33,-0.59,-0.41
3.0,140.56,39.5,-10.06,140.56,39.5,-10.06,-0.32,0.29,0.18,0.88,3.0,291.25,-83.62,-4.13,291.25,-83.62,-4.13,-0.61,0.34,-0.58,-0.42
3.0,140.5,39.13,-10.13,140.5,39.13,-10.13,-0.32,0.29,0.18,0.88,3.0,291.13,-83.81,-3.69,291.13,-83.81,-3.69,-0.61,0.35,-0.58,-0.42
3.0,140.38,38.63,-10.5,140.38,38.63,-10.5,-0.32,0.29,0.18,0.89,3.0,290.63,-84.06,-3.94,290.63,-84.06,-3.94,-0.6,0.35,-0.59,-0.42
3.0,140.38,38.06,-10.75,140.38,38.06,-10.75,-0.32,0.28,0.18,0.89,3.0,290.25,-84.25,-4.25,290.25,-84.25,-4.25,-0.6,0.35,-0.59,-0.42
3.0,140.44,37.63,-10.56,140.44,37.63,-10.56,-0.32,0.28,0.18,0.89,3.0,291.06,-84.62,-3.56,291.06,-84.62,-3.56,-0.61,0.35,-0.58,-0.41
3.0,140.31,37.38,-10.5,140.31,37.38,-10.5,-0.32,0.28,0.18,0.89,3.0,292.19,-84.25,-2.94,292.19,-84.25,-2.94,-0.61,0.35,-0.58,-0.41
3.0,140.13,37.25,-10.5,140.13,37.25,-10.5,-0.32,0.28,0.18,0.89,3.0,293.19,-83.44,-2.88,293.19,-83.44,-2.88,-0.62,0.34,-0.58,-0.41
3.0,139.94,37.31,-10.38,139.94,37.31,-10.38,-0.32,0.28,0.18,0.89,3.0,294.38,-82.0,-19.44,294.38,-82.0,-19.44,-0.63,0.33,-0.57,-0.41
3.0,139.81,37.44,-10.5,139.81,37.44,-10.5,-0.32,0.28,0.18,0.89,3.0,295.5,-80.87,-17.19,295.5,-80.87,-17.19,-0.64,0.32,-0.57,-0.4
3.0,139.5,37.81,-10.88,139.5,37.81,-10.88,-0.33,0.28,0.19,0.88,3.0,296.06,-81.37,-22.87,296.06,-81.37,-22.87,-0.64,0.31,-0.58,-0.4
3.0,139.0,38.0,-11.06,139.0,38.0,-11.06,-0.33,0.28,0.19,0.88,3.0,295.75,-83.5,-4.63,295.75,-83.5,-4.63,-0.62,0.31,-0.6,-0.39
3.0,138.88,37.88,-10.44,138.88,37.88,-10.44,-0.33,0.28,0.18,0.88,3.0,294.44,-83.94,-5.94,294.44,-83.94,-5.94,-0.6,0.32,-0.63,-0.38
3.0,138.88,37.56,-9.75,138.88,37.56,-9.75,-0.33,0.28,0.18,0.88,3.0,293.5,-82.87,-100.25,293.5,-82.87,-100.25,-0.58,0.32,-0.64,-0.38
3.0,139.0,37.13,-9.31,139.0,37.13,-9.31,-0.33,0.27,0.18,0.89,3.0,293.63,-83.19,-6.75,293.63,-83.19,-6.75,-0.59,0.31,-0.63,-0.39
3.0,139.06,37.06,-9.69,139.06,37.06,-9.69,-0.33,0.27,0.18,0.89,3.0,293.69,-83.25,-6.31,293.69,-83.25,-6.31,-0.6,0.31,-0.62,-0.39
3.0,139.0,37.19,-10.0,139.0,37.19,-10.0,-0.33,0.27,0.18,0.88,3.0,293.56,-82.94,-60.19,293.56,-82.94,-60.19,-0.61,0.31,-0.61,-0.4
3.0,138.88,37.38,-9.88,138.88,37.38,-9.88,-0.33,0.28,0.18,0.88,3.0,293.19,-82.87,-59.25,293.19,-82.87,-59.25,-0.61,0.31,-0.61,-0.4
3.0,138.75,37.56,-9.63,138.75,37.56,-9.63,-0.33,0.28,0.18,0.88,3.0,292.75,-82.94,-61.13,292.75,-82.94,-61.13,-0.6,0.32,-0.61,-0.41
3.0,138.75,37.88,-9.13,138.75,37.88,-9.13,-0.33,0.28,0.18,0.88,3.0,292.0,-83.0,-61.31,292.0,-83.0,-61.31,-0.6,0.32,-0.61,-0.41
3.0,138.94,38.19,-8.69,138.94,38.19,-8.69,-0.33,0.29,0.17,0.88,3.0,291.81,-82.94,-59.94,291.81,-82.94,-59.94,-0.6,0.32,-0.6,-0.41
3.0,139.06,38.38,-8.31,139.06,38.38,-8.31,-0.33,0.29,0.17,0.88,3.0,292.06,-83.19,-5.63,292.06,-83.19,-5.63,-0.61,0.33,-0.6,-0.41
3.0,139.31,38.69,-7.69,139.31,38.69,-7.69,-0.33,0.29,0.17,0.88,3.0,292.06,-83.12,-5.25,292.06,-83.12,-5.25,-0.61,0.33,-0.6,-0.41
3.0,139.44,39.0,-7.19,139.44,39.0,-7.19,-0.33,0.3,0.16,0.88,3.0,292.75,-83.12,-47.38,292.75,-83.12,-47.38,-0.61,0.32,-0.6,-0.41
3.0,139.44,39.06,-7.25,139.44,39.06,-7.25,-0.33,0.3,0.16,0.88,3.0,293.31,-83.12,-5.0,293.31,-83.12,-5.0,-0.62,0.32,-0.6,-0.4
3.0,139.38,39.0,-7.63,139.38,39.0,-7.63,-0.33,0.29,0.17,0.88,3.0,293.69,-82.56,-40.06,293.69,-82.56,-40.06,-0.62,0.32,-0.59,-0.41
3.0,139.38,38.88,-8.0,139.38,38.88,-8.0,-0.33,0.29,0.17,0.88,3.0,293.88,-81.5,-30.87,293.88,-81.5,-30.87,-0.63,0.32,-0.58,-0.41
3.0,139.44,38.75,-8.06,139.44,38.75,-8.06,-0.33,0.29,0.17,0.88,3.0,293.69,-80.87,-26.31,293.69,-80.87,-26.31,-0.63,0.32,-0.57,-0.41
3.0,139.56,38.5,-8.13,139.56,38.5,-8.13,-0.33,0.29,0.17,0.88,3.0,293.5,-80.62,-23.12,293.5,-80.62,-23.12,-0.63,0.32,-0.57,-0.42
3.0,139.69,38.25,-8.19,139.69,38.25,-8.19,-0.32,0.29,0.17,0.88,3.0,293.19,-80.69,-20.37,293.19,-80.69,-20.37,-0.63,0.33,-0.56,-0.42
3.0,139.69,38.06,-8.5,139.69,38.06,-8.5,-0.32,0.28,0.17,0.89,3.0,293.25,-80.37,-15.44,293.25,-80.37,-15.44,-0.64,0.33,-0.56,-0.42
3.0,139.69,37.88,-9.19,139.69,37.88,-9.19,-0.32,0.28,0.18,0.89,3.0,293.44,-79.56,-11.88,293.44,-79.56,-11.88,-0.64,0.33,-0.55,-0.42
3.0,139.75,37.75,-9.69,139.75,37.75,-9.69,-0.32,0.28,0.18,0.89,3.0,293.56,-79.25,-10.25,293.56,-79.25,-10.25,-0.64,0.33,-0.55,-0.42
3.0,139.81,37.69,-9.81,139.81,37.69,-9.81,-0.32,0.28,0.18,0.89,3.0,293.75,-79.12,-8.5,293.75,-79.12,-8.5,-0.64,0.33,-0.54,-0.42
3.0,139.81,37.63,-9.81,139.81,37.63,-9.81,-0.32,0.28,0.18,0.89,3.0,293.25,-79.44,-8.06,293.25,-79.44,-8.06,-0.64,0.34,-0.54,-0.42
3.0,139.88,37.63,-9.63,139.88,37.63,-9.63,-0.32,0.28,0.18,0.89,3.0,293.13,-79.69,-8.25,293.13,-79.69,-8.25,-0.64,0.34,-0.54,-0.42
3.0,139.94,37.56,-9.56,139.94,37.56,-9.56,-0.32,0.28,0.18,0.89,3.0,292.94,-79.69,-7.06,292.94,-79.69,-7.06,-0.64,0.34,-0.54,-0.42
3.0,140.0,37.56,-9.56,140.0,37.56,-9.56,-0.32,0.28,0.18,0.89,3.0,293.19,-79.12,-4.13,293.19,-79.12,-4.13,-0.65,0.34,-0.53,-0.42
3.0,140.13,37.63,-9.63,140.13,37.63,-9.63,-0.32,0.28,0.18,0.89,3.0,293.69,-78.06,-0.81,293.69,-78.06,-0.81,-0.65,0.34,-0.53,-0.42
3.0,140.13,37.75,-9.69,140.13,37.75,-9.69,-0.32,0.28,0.18,0.89,3.0,293.94,-77.19,1.81,293.94,-77.19,1.81,-0.66,0.34,-0.52,-0.43
3.0,140.06,37.88,-9.69,140.06,37.88,-9.69,-0.32,0.28,0.18,0.89,3.0,293.69,-77.37,2.44,293.69,-77.37,2.44,-0.65,0.35,-0.52,-0.43
3.0,140.06,37.94,-9.44,140.06,37.94,-9.44,-0.32,0.28,0.18,0.89,3.0,292.75,-77.69,2.81,292.75,-77.69,2.81,-0.65,0.35,-0.52,-0.43
3.0,140.13,37.81,-9.13,140.13,37.81,-9.13,-0.32,0.28,0.17,0.89,3.0,292.06,-78.31,2.75,292.06,-78.31,2.75,-0.64,0.36,-0.52,-0.43
3.0,140.06,37.69,-8.94,140.06,37.69,-8.94,-0.32,0.28,0.17,0.89,3.0,291.81,-78.94,2.13,291.81,-78.94,2.13,-0.64,0.36,-0.53,-0.43
3.0,140.06,37.56,-8.69,140.06,37.56,-8.69,-0.32,0.28,0.17,0.89,3.0,291.69,-79.56,0.94,291.69,-79.56,0.94,-0.64,0.36,-0.53,-0.43
3.0,140.06,37.63,-8.69,140.06,37.63,-8.69,-0.32,0.28,0.17,0.89,3.0,292.06,-80.06,-0.12,292.06,-80.06,-0.12,-0.63,0.36,-0.53,-0.43
3.0,140.0,37.63,-9.06,140.0,37.63,-9.06,-0.32,0.28,0.17,0.89,3.0,292.19,-80.19,-0.5,292.19,-80.19,-0.5,-0.64,0.36,-0.54,-0.43
3.0,140.0,37.63,-9.19,140.0,37.63,-9.19,-0.32,0.28,0.17,0.89,3.0,292.06,-80.12,-0.12,292.06,-80.12,-0.12,-0.63,0.36,-0.53,-0.43
3.0,140.0,37.75,-9.06,140.0,37.75,-9.06,-0.32,0.28,0.17,0.89,3.0,292.0,-79.75,0.94,292.0,-79.75,0.94,-0.64,0.36,-0.53,-0.43
3.0,140.06,37.75,-9.06,140.06,37.75,-9.06,-0.32,0.28,0.17,0.89,3.0,291.75,-79.56,1.31,291.75,-79.56,1.31,-0.64,0.36,-0.53,-0.43
3.0,140.06,37.88,-9.06,140.06,37.88,-9.06,-0.32,0.28,0.17,0.89,3.0,291.81,-79.56,1.31,291.81,-79.56,1.31,-0.64,0.36,-0.53,-0.43
3.0,140.06,38.0,-8.94,140.06,38.0,-8.94,-0.32,0.28,0.17,0.89,3.0,291.63,-79.69,1.63,291.63,-79.69,1.63,-0.63,0.36,-0.53,-0.43
3.0,140.13,38.0,-8.88,140.13,38.0,-8.88,-0.32,0.29,0.17,0.89,3.0,291.44,-79.62,2.75,291.44,-79.62,2.75,-0.63,0.37,-0.53,-0.43
3.0,140.19,37.94,-8.88,140.19,37.94,-8.88,-0.32,0.28,0.17,0.89,3.0,291.13,-79.62,3.81,291.13,-79.62,3.81,-0.63,0.37,-0.52,-0.43
3.0,140.19,37.88,-9.06,140.19,37.88,-9.06,-0.32,0.28,0.17,0.89,3.0,290.88,-79.0,5.88,290.88,-79.0,5.88,-0.64,0.37,-0.51,-0.44
3.0,140.25,37.69,-9.31,140.25,37.69,-9.31,-0.32,0.28,0.17,0.89,3.0,290.5,-78.44,7.69,290.5,-78.44,7.69,-0.64,0.38,-0.51,-0.44
3.0,140.19,37.5,-9.5,140.19,37.5,-9.5,-0.32,0.28,0.18,0.89,3.0,290.19,-78.44,8.13,290.19,-78.44,8.13,-0.63,0.38,-0.51,-0.44
3.0,140.19,37.38,-9.69,140.19,37.38,-9.69,-0.32,0.28,0.18,0.89,3.0,290.25,-78.81,8.19,290.25,-78.81,8.19,-0.63,0.38,-0.51,-0.44
3.0,140.25,37.31,-9.75,140.25,37.31,-9.75,-0.32,0.28,0.18,0.89,3.0,290.25,-79.12,8.13,290.25,-79.12,8.13,-0.63,0.38,-0.51,-0.44
3.0,140.31,37.25,-9.88,140.31,37.25,-9.88,-0.32,0.28,0.18,0.89,3.0,290.38,-79.31,8.06,290.38,-79.31,8.06,-0.63,0.38,-0.51,-0.44
3.0,140.31,37.19,-9.94,140.31,37.19,-9.94,-0.32,0.28,0.18,0.89,3.0,290.75,-79.44,7.81,290.75,-79.44,7.81,-0.63,0.38,-0.52,-0.44
3.0,140.38,37.25,-9.94,140.38,37.25,-9.94,-0.32,0.28,0.18,0.89,3.0,290.81,-79.44,7.81,290.81,-79.44,7.81,-0.63,0.38,-0.52,-0.44
3.0,140.44,37.25,-9.94,140.44,37.25,-9.94,-0.32,0.28,0.18,0.89,3.0,290.81,-79.25,8.13,290.81,-79.25,8.13,-0.63,0.38,-0.51,-0.44
3.0,140.44,37.31,-9.94,140.44,37.31,-9.94,-0.32,0.28,0.18,0.89,3.0,290.69,-79.0,8.69,290.69,-79.0,8.69,-0.63,0.38,-0.51,-0.44
3.0,140.44,37.44,-9.88,140.44,37.44,-9.88,-0.32,0.28,0.18,0.89,3.0,290.69,-78.81,9.44,290.69,-78.81,9.44,-0.63,0.38,-0.51,-0.44
3.0,140.5,37.5,-9.88,140.5,37.5,-9.88,-0.32,0.28,0.18,0.89,3.0,290.75,-78.81,10.0,290.75,-78.81,10.0,-0.63,0.38,-0.51,-0.44
3.0,140.56,37.44,-9.94,140.56,37.44,-9.94,-0.32,0.28,0.18,0.89,3.0,290.63,-78.75,10.75,290.63,-78.75,10.75,-0.63,0.38,-0.51,-0.44
3.0,140.56,37.38,-9.94,140.56,37.38,-9.94,-0.32,0.28,0.18,0.89,3.0,290.63,-78.62,11.44,290.63,-78.62,11.44,-0.63,0.38,-0.51,-0.44
3.0,140.56,37.38,-9.94,140.56,37.38,-9.94,-0.32,0.28,0.18,0.89,3.0,290.44,-78.56,12.19,290.44,-78.56,12.19,-0.63,0.38,-0.51,-0.44
3.0,140.56,37.38,-10.0,140.56,37.38,-10.0,-0.32,0.28,0.18,0.89,3.0,290.5,-78.44,12.88,290.5,-78.44,12.88,-0.64,0.38,-0.5,-0.44
3.0,140.56,37.38,-10.0,140.56,37.38,-10.0,-0.32,0.28,0.18,0.89,3.0,290.38,-78.5,12.69,290.38,-78.5,12.69,-0.63,0.39,-0.5,-0.44
3.0,140.56,37.44,-9.94,140.56,37.44,-9.94,-0.32,0.28,0.18,0.89,3.0,290.13,-78.44,12.63,290.13,-78.44,12.63,-0.63,0.39,-0.5,-0.44
3.0,140.56,37.44,-9.88,140.56,37.44,-9.88,-0.32,0.28,0.18,0.89,3.0,290.0,-78.44,12.69,290.0,-78.44,12.69,-0.63,0.39,-0.5,-0.44
3.0,140.56,37.31,-9.88,140.56,37.31,-9.88,-0.32,0.28,0.18,0.89,3.0,290.19,-78.94,11.81,290.19,-78.94,11.81,-0.63,0.38,-0.51,-0.44
3.0,140.5,37.25,-10.0,140.5,37.25,-10.0,-0.32,0.28,0.18,0.89,3.0,290.44,-79.56,11.06,290.44,-79.56,11.06,-0.63,0.38,-0.51,-0.44
3.0,140.44,37.31,-10.06,140.44,37.31,-10.06,-0.32,0.28,0.18,0.89,3.0,290.63,-80.06,10.56,290.63,-80.06,10.56,-0.63,0.38,-0.52,-0.44
3.0,140.44,37.44,-9.94,140.44,37.44,-9.94,-0.32,0.28,0.18,0.89,3.0,290.88,-80.25,10.38,290.88,-80.25,10.38,-0.63,0.38,-0.52,-0.43
3.0,140.44,37.63,-9.75,140.44,37.63,-9.75,-0.32,0.28,0.18,0.89,3.0,291.31,-80.31,10.0,291.31,-80.31,10.0,-0.63,0.38,-0.52,-0.43
3.0,140.44,37.75,-9.75,140.44,37.75,-9.75,-0.32,0.28,0.18,0.89,3.0,291.44,-80.31,9.56,291.44,-80.31,9.56,-0.63,0.38,-0.52,-0.43
3.0,140.5,37.69,-9.69,140.5,37.69,-9.69,-0.32,0.28,0.18,0.89,3.0,291.38,-80.25,10.06,291.38,-80.25,10.06,-0.63,0.38,-0.52,-0.43
3.0,140.5,37.69,-9.56,140.5,37.69,-9.56,-0.32,0.28,0.18,0.89,3.0,291.25,-80.12,10.81,291.25,-80.12,10.81,-0.63,0.38,-0.52,-0.43
3.0,140.5,37.69,-9.38,140.5,37.69,-9.38,-0.32,0.28,0.17,0.89,3.0,291.13,-79.94,11.69,291.13,-79.94,11.69,-0.63,0.38,-0.52,-0.43
3.0,140.5,37.69,-9.31,140.5,37.69,-9.31,-0.32,0.28,0.17,0.89,3.0,291.0,-79.81,12.5,291.0,-79.81,12.5,-0.63,0.38,-0.52,-0.43
3.0,140.5,37.75,-9.31,140.5,37.75,-9.31,-0.32,0.28,0.17,0.89,3.0,290.94,-79.75,12.94,290.94,-79.75,12.94,-0.63,0.39,-0.51,-0.43
3.0,140.5,37.81,-9.25,140.5,37.81,-9.25,-0.32,0.28,0.17,0.89,3.0,291.0,-79.87,12.56,291.0,-79.87,12.56,-0.63,0.38,-0.52,-0.43
3.0,140.5,37.88,-9.19,140.5,37.88,-9.19,-0.32,0.28,0.17,0.89,3.0,291.0,-80.25,11.81,291.0,-80.25,11.81,-0.63,0.38,-0.52,-0.43
3.0,140.44,37.88,-9.06,140.44,37.88,-9.06,-0.32,0.28,0.17,0.89,3.0,290.63,-80.75,11.94,290.63,-80.75,11.94,-0.63,0.39,-0.52,-0.43
3.0,140.5,37.94,-9.06,140.5,37.94,-9.06,-0.32,0.28,0.17,0.89,3.0,290.0,-81.19,12.75,290.0,-81.19,12.75,-0.62,0.39,-0.52,-0.43
3.0,140.56,37.94,-8.94,140.56,37.94,-8.94,-0.32,0.29,0.17,0.89,3.0,289.5,-81.37,13.31,289.5,-81.37,13.31,-0.62,0.4,-0.52,-0.44
3.0,140.56,37.94,-8.81,140.56,37.94,-8.81,-0.32,0.29,0.17,0.89,3.0,289.5,-81.81,12.38,289.5,-81.81,12.38,-0.62,0.39,-0.52,-0.44
3.0,140.56,37.94,-8.81,140.56,37.94,-8.81,-0.32,0.29,0.17,0.89,3.0,289.63,-82.62,10.38,289.63,-82.62,10.38,-0.61,0.39,-0.53,-0.43
3.0,140.56,37.94,-8.75,140.56,37.94,-8.75,-0.32,0.29,0.17,0.89,3.0,289.81,-83.44,1.0,289.81,-83.44,1.0,-0.61,0.39,-0.54,-0.43
3.0,140.56,38.0,-8.63,140.56,38.0,-8.63,-0.32,0.29,0.17,0.89,3.0,289.81,-84.31,0.69,289.81,-84.31,0.69,-0.61,0.39,-0.54,-0.43
3.0,140.56,38.13,-8.56,140.56,38.13,-8.56,-0.32,0.29,0.17,0.89,3.0,289.81,-84.75,0.5,289.81,-84.75,0.5,-0.6,0.39,-0.55,-0.42
3.0,140.56,38.19,-8.44,140.56,38.19,-8.44,-0.32,0.29,0.17,0.89,3.0,289.75,-85.06,0.37,289.75,-85.06,0.37,-0.6,0.39,-0.55,-0.42
3.0,140.56,38.25,-8.31,140.56,38.25,-8.31,-0.32,0.29,0.17,0.89,3.0,289.88,-85.31,0.31,289.88,-85.31,0.31,-0.6,0.39,-0.55,-0.42
3.0,140.56,38.38,-8.19,140.56,38.38,-8.19,-0.32,0.29,0.17,0.89,3.0,289.88,-85.69,0.12,289.88,-85.69,0.12,-0.6,0.39,-0.56,-0.42
3.0,140.56,38.44,-8.06,140.56,38.44,-8.06,-0.32,0.29,0.17,0.89,3.0,290.0,-85.87,0.12,290.0,-85.87,0.12,-0.6,0.39,-0.56,-0.42
3.0,140.56,38.56,-7.94,140.56,38.56,-7.94,-0.32,0.29,0.17,0.89,3.0,290.13,-85.56,0.31,290.13,-85.56,0.31,-0.6,0.39,-0.55,-0.42
3.0,140.63,38.69,-7.94,140.63,38.69,-7.94,-0.32,0.29,0.17,0.89,3.0,290.25,-85.0,0.63,290.25,-85.0,0.63,-0.61,0.39,-0.55,-0.42
3.0,140.63,38.75,-8.0,140.63,38.75,-8.0,-0.32,0.29,0.17,0.89,3.0,290.31,-84.75,0.75,290.31,-84.75,0.75,-0.61,0.39,-0.55,-0.42
3.0,140.63,38.81,-8.06,140.63,38.81,-8.06,-0.32,0.29,0.17,0.89,3.0,290.38,-84.75,0.81,290.38,-84.75,0.81,-0.61,0.39,-0.55,-0.42
3.0,140.56,38.81,-8.13,140.56,38.81,-8.13,-0.32,0.29,0.17,0.89,3.0,290.31,-84.75,0.81,290.31,-84.75,0.81,-0.61,0.39,-0.55,-0.42
3.0,140.56,38.81,-8.25,140.56,38.81,-8.25,-0.32,0.29,0.17,0.89,3.0,290.31,-84.75,0.81,290.31,-84.75,0.81,-0.61,0.39,-0.55,-0.42
3.0,140.56,38.81,-8.31,140.56,38.81,-8.31,-0.32,0.29,0.17,0.89,3.0,290.31,-84.62,0.94,290.31,-84.62,0.94,-0.61,0.39,-0.55,-0.42
3.0,140.56,38.69,-8.44,140.56,38.69,-8.44,-0.32,0.29,0.17,0.89,3.0,290.19,-84.94,0.81,290.19,-84.94,0.81,-0.6,0.4,-0.55,-0.42
3.0,140.56,38.63,-8.5,140.56,38.63,-8.5,-0.32,0.29,0.17,0.89,3.0,289.94,-85.69,0.63,289.94,-85.69,0.63,-0.6,0.4,-0.55,-0.42
3.0,140.56,38.63,-8.5,140.56,38.63,-8.5,-0.32,0.29,0.17,0.89,3.0,289.5,-86.0,0.69,289.5,-86.0,0.69,-0.6,0.4,-0.55,-0.42
3.0,140.63,38.63,-8.44,140.63,38.63,-8.44,-0.32,0.29,0.17,0.89,3.0,289.13,-85.5,1.06,289.13,-85.5,1.06,-0.6,0.41,-0.54,-0.43
3.0,140.63,38.63,-8.44,140.63,38.63,-8.44,-0.32,0.29,0.17,0.89,3.0,288.75,-84.69,1.5,288.75,-84.69,1.5,-0.6,0.41,-0.54,-0.43
3.0,140.63,38.63,-8.38,140.63,38.63,-8.38,-0.32,0.29,0.17,0.89,3.0,288.69,-84.5,1.63,288.69,-84.5,1.63,-0.6,0.41,-0.54,-0.43
3.0,140.63,38.63,-8.31,140.63,38.63,-8.31,-0.32,0.29,0.17,0.89,3.0,288.88,-84.87,1.37,288.88,-84.87,1.37,-0.6,0.41,-0.54,-0.43
3.0,140.69,38.63,-8.25,140.69,38.63,-8.25,-0.32,0.29,0.17,0.89,3.0,288.94,-85.56,0.94,288.94,-85.56,0.94,-0.6,0.4,-0.55,-0.43
3.0,140.75,38.63,-8.19,140.75,38.63,-8.19,-0.32,0.29,0.17,0.89,3.0,289.06,-85.56,0.94,289.06,-85.56,0.94,-0.6,0.4,-0.55,-0.43
3.0,140.75,38.63,-8.25,140.75,38.63,-8.25,-0.32,0.29,0.17,0.89,3.0,289.19,-85.31,1.06,289.19,-85.31,1.06,-0.6,0.4,-0.55,-0.43
3.0,140.81,38.63,-8.25,140.81,38.63,-8.25,-0.32,0.29,0.17,0.89,3.0,289.25,-85.19,1.12,289.25,-85.19,1.12,-0.6,0.4,-0.54,-0.43
3.0,140.81,38.63,-8.19,140.81,38.63,-8.19,-0.32,0.29,0.17,0.89,3.0,289.38,-84.94,1.12,289.38,-84.94,1.12,-0.6,0.4,-0.54,-0.43
3.0,140.81,38.69,-8.06,140.81,38.69,-8.06,-0.32,0.29,0.17,0.89,3.0,289.5,-84.75,1.25,289.5,-84.75,1.25,-0.6,0.4,-0.54,-0.43
3.0,140.81,38.81,-7.94,140.81,38.81,-7.94,-0.32,0.29,0.17,0.89,3.0,289.63,-84.56,1.31,289.63,-84.56,1.31,-0.6,0.4,-0.54,-0.43
3.0,140.81,38.94,-7.88,140.81,38.94,-7.88,-0.32,0.3,0.17,0.89,3.0,289.69,-84.62,1.31,289.69,-84.62,1.31,-0.6,0.4,-0.54,-0.42
3.0,140.88,39.0,-7.94,140.88,39.0,-7.94,-0.31,0.3,0.17,0.89,3.0,289.88,-84.5,1.37,289.88,-84.5,1.37,-0.61,0.4,-0.54,-0.42
3.0,140.88,39.0,-8.06,140.88,39.0,-8.06,-0.31,0.3,0.17,0.89,3.0,289.94,-84.5,1.37,289.94,-84.5,1.37,-0.61,0.4,-0.54,-0.42
3.0,140.88,38.94,-8.0,140.88,38.94,-8.0,-0.31,0.3,0.17,0.89,3.0,289.94,-84.62,1.31,289.94,-84.62,1.31,-0.6,0.4,-0.54,-0.42
3.0,140.88,38.94,-8.0,140.88,38.94,-8.0,-0.31,0.3,0.17,0.89,3.0,289.88,-84.75,1.31,289.88,-84.75,1.31,-0.6,0.4,-0.54,-0.42
3.0,140.88,38.94,-8.0,140.88,38.94,-8.0,-0.31,0.3,0.17,0.89,3.0,289.81,-84.62,1.37,289.81,-84.62,1.37,-0.6,0.4,-0.54,-0.42
3.0,140.88,38.94,-8.0,140.88,38.94,-8.0,-0.31,0.3,0.17,0.89,3.0,289.81,-84.81,1.31,289.81,-84.81,1.31,-0.6,0.4,-0.54,-0.42
3.0,140.88,38.94,-8.06,140.88,38.94,-8.06,-0.31,0.3,0.17,0.89,3.0,289.88,-84.75,1.37,289.88,-84.75,1.37,-0.6,0.4,-0.54,-0.42
3.0,140.88,38.94,-8.13,140.88,38.94,-8.13,-0.31,0.3,0.17,0.89,3.0,289.81,-84.37,1.56,289.81,-84.37,1.56,-0.6,0.4,-0.54,-0.42
3.0,140.88,38.94,-8.19,140.88,38.94,-8.19,-0.31,0.3,0.17,0.89,3.0,289.75,-84.37,1.63,289.75,-84.37,1.63,-0.6,0.4,-0.54,-0.43
3.0,140.88,38.94,-8.19,140.88,38.94,-8.19,-0.31,0.3,0.17,0.89,3.0,289.81,-84.5,1.56,289.81,-84.5,1.56,-0.6,0.4,-0.54,-0.42
3.0,140.94,38.94,-8.06,140.94,38.94,-8.06,-0.31,0.3,0.17,0.89,3.0,289.88,-84.62,1.5,289.88,-84.62,1.5,-0.6,0.4,-0.54,-0.42
3.0,140.94,38.94,-8.13,140.94,38.94,-8.13,-0.31,0.3,0.17,0.89,3.0,289.75,-84.94,1.31,289.75,-84.94,1.31,-0.6,0.4,-0.55,-0.42
3.0,140.81,38.88,-8.0,140.81,38.88,-8.0,-0.32,0.3,0.17,0.89,3.0,289.75,-85.87,0.88,289.75,-85.87,0.88,-0.6,0.4,-0.55,-0.42
3.0,140.94,38.81,-7.56,140.94,38.81,-7.56,-0.31,0.3,0.16,0.89,3.0,289.75,-86.87,0.44,289.75,-86.87,0.44,-0.59,0.4,-0.56,-0.42
3.0,141.0,38.81,-7.31,141.0,38.81,-7.31,-0.31,0.3,0.16,0.89,3.0,289.81,-86.94,0.5,289.81,-86.94,0.5,-0.59,0.4,-0.56,-0.42
3.0,140.94,38.81,-7.5,140.94,38.81,-7.5,-0.31,0.3,0.16,0.89,3.0,289.94,-86.19,0.88,289.94,-86.19,0.88,-0.6,0.4,-0.55,-0.42
3.0,140.94,39.0,-7.56,140.94,39.0,-7.56,-0.31,0.3,0.16,0.89,3.0,289.94,-86.25,0.69,289.94,-86.25,0.69,-0.6,0.4,-0.56,-0.42
3.0,140.88,39.19,-7.44,140.88,39.19,-7.44,-0.31,0.3,0.16,0.89,3.0,289.81,-87.06,0.25,289.81,-87.06,0.25,-0.59,0.4,-0.56,-0.42
3.0,140.81,39.25,-7.31,140.81,39.25,-7.31,-0.31,0.3,0.16,0.89,3.0,289.44,-87.12,0.37,289.44,-87.12,0.37,-0.59,0.4,-0.56,-0.42
3.0,140.81,39.25,-7.06,140.81,39.25,-7.06,-0.31,0.3,0.16,0.89,3.0,288.94,-86.5,0.75,288.94,-86.5,0.75,-0.59,0.41,-0.55,-0.42
3.0,141.0,39.31,-6.56,141.0,39.31,-6.56,-0.31,0.3,0.16,0.89,3.0,288.63,-85.94,1.06,288.63,-85.94,1.06,-0.59,0.41,-0.55,-0.43
3.0,141.06,39.31,-6.5,141.06,39.31,-6.5,-0.31,0.3,0.16,0.89,3.0,288.75,-85.94,1.06,288.75,-85.94,1.06,-0.59,0.41,-0.55,-0.42
3.0,141.06,39.25,-6.88,141.06,39.25,-6.88,-0.31,0.3,0.16,0.89,3.0,289.06,-86.12,0.94,289.06,-86.12,0.94,-0.59,0.41,-0.55,-0.42
3.0,141.13,39.13,-7.38,141.13,39.13,-7.38,-0.31,0.3,0.16,0.89,3.0,289.31,-86.12,0.94,289.31,-86.12,0.94,-0.6,0.4,-0.55,-0.42
3.0,141.13,39.13,-7.5,141.13,39.13,-7.5,-0.31,0.3,0.16,0.89,3.0,289.44,-85.87,1.12,289.44,-85.87,1.12,-0.6,0.41,-0.55,-0.42
3.0,141.19,39.06,-7.56,141.19,39.06,-7.56,-0.31,0.3,0.16,0.89,3.0,289.56,-85.69,1.19,289.56,-85.69,1.19,-0.6,0.4,-0.55,-0.42
3.0,141.25,39.06,-7.56,141.25,39.06,-7.56,-0.31,0.3,0.16,0.89,3.0,289.75,-85.62,1.25,289.75,-85.62,1.25,-0.6,0.4,-0.55,-0.42
3.0,141.25,39.06,-7.69,141.25,39.06,-7.69,-0.31,0.3,0.16,0.89,3.0,289.81,-85.56,1.31,289.81,-85.56,1.31,-0.6,0.4,-0.55,-0.42
3.0,141.31,39.06,-7.75,141.31,39.06,-7.75,-0.31,0.3,0.16,0.89,3.0,289.88,-85.31,1.56,289.88,-85.31,1.56,-0.6,0.41,-0.55,-0.42
3.0,141.38,39.06,-7.81,141.38,39.06,-7.81,-0.31,0.3,0.16,0.89,3.0,289.94,-85.12,1.69,289.94,-85.12,1.69,-0.6,0.41,-0.54,-0.42
3.0,141.38,39.06,-7.88,141.38,39.06,-7.88,-0.31,0.3,0.16,0.89,3.0,290.0,-85.12,1.75,290.0,-85.12,1.75,-0.6,0.41,-0.54,-0.42
3.0,141.38,39.06,-7.94,141.38,39.06,-7.94,-0.31,0.3,0.17,0.89,3.0,290.06,-85.06,1.88,290.06,-85.06,1.88,-0.6,0.41,-0.54,-0.42
3.0,141.38,39.06,-8.06,141.38,39.06,-8.06,-0.31,0.3,0.17,0.89,3.0,290.06,-84.94,1.94,290.06,-84.94,1.94,-0.6,0.41,-0.54,-0.42
3.0,141.38,39.0,-8.19,141.38,39.0,-8.19,-0.31,0.3,0.17,0.89,3.0,290.06,-84.87,2.06,290.06,-84.87,2.06,-0.6,0.41,-0.54,-0.42
3.0,141.44,38.88,-8.31,141.44,38.88,-8.31,-0.31,0.3,0.17,0.89,3.0,290.06,-84.81,2.06,290.06,-84.81,2.06,-0.6,0.41,-0.54,-0.42
3.0,141.44,38.81,-8.5,141.44,38.81,-8.5,-0.31,0.29,0.17,0.89,3.0,290.06,-84.81,2.13,290.06,-84.81,2.13,-0.6,0.41,-0.54,-0.42
3.0,141.5,38.75,-8.63,141.5,38.75,-8.63,-0.31,0.29,0.17,0.89,3.0,290.13,-84.75,2.19,290.13,-84.75,2.19,-0.6,0.41,-0.54,-0.42
3.0,141.5,38.69,-8.94,141.5,38.69,-8.94,-0.31,0.29,0.17,0.89,3.0,290.25,-84.87,2.13,290.25,-84.87,2.13,-0.6,0.41,-0.54,-0.42
3.0,141.44,38.5,-9.25,141.44,38.5,-9.25,-0.31,0.29,0.17,0.89,3.0,290.44,-85.12,2.0,290.44,-85.12,2.0,-0.6,0.41,-0.54,-0.42
3.0,141.5,38.38,-9.44,141.5,38.38,-9.44,-0.31,0.29,0.17,0.89,3.0,290.56,-85.37,1.88,290.56,-85.37,1.88,-0.6,0.41,-0.55,-0.42
3.0,141.5,38.25,-9.56,141.5,38.25,-9.56,-0.31,0.29,0.17,0.89,3.0,290.56,-85.62,1.81,290.56,-85.62,1.81,-0.6,0.41,-0.55,-0.42
3.0,141.44,38.19,-9.63,141.44,38.19,-9.63,-0.31,0.29,0.17,0.89,3.0,290.5,-85.75,1.81,290.5,-85.75,1.81,-0.6,0.41,-0.55,-0.42
3.0,141.44,38.19,-9.56,141.44,38.19,-9.56,-0.31,0.29,0.17,0.89,3.0,290.44,-85.69,1.94,290.44,-85.69,1.94,-0.6,0.41,-0.55,-0.42
3.0,141.5,38.19,-9.56,141.5,38.19,-9.56,-0.31,0.29,0.17,0.89,3.0,290.44,-85.44,2.06,290.44,-85.44,2.06,-0.6,0.41,-0.54,-0.42
3.0,141.5,38.19,-9.56,141.5,38.19,-9.56,-0.31,0.29,0.17,0.89,3.0,290.5,-85.06,2.31,290.5,-85.06,2.31,-0.6,0.41,-0.54,-0.42
3.0,141.44,38.25,-9.69,141.44,38.25,-9.69,-0.31,0.29,0.17,0.89,3.0,290.63,-84.62,2.5,290.63,-84.62,2.5,-0.61,0.41,-0.54,-0.42
3.0,141.44,38.31,-9.69,141.44,38.31,-9.69,-0.31,0.29,0.17,0.89,3.0,290.69,-84.31,2.75,290.69,-84.31,2.75,-0.61,0.41,-0.54,-0.42
3.0,141.44,38.25,-9.69,141.44,38.25,-9.69,-0.31,0.29,0.17,0.89,3.0,290.63,-84.25,2.81,290.63,-84.25,2.81,-0.61,0.41,-0.54,-0.42
3.0,141.44,38.25,-9.63,141.44,38.25,-9.63,-0.31,0.29,0.17,0.89,3.0,290.63,-84.12,2.88,290.63,-84.12,2.88,-0.61,0.41,-0.53,-0.42
3.0,141.44,38.19,-9.63,141.44,38.19,-9.63,-0.31,0.29,0.17,0.89,3.0,290.69,-84.0,3.0,290.69,-84.0,3.0,-0.61,0.41,-0.53,-0.42
3.0,141.44,38.19,-9.56,141.44,38.19,-9.56,-0.31,0.29,0.17,0.89,3.0,290.69,-83.87,3.06,290.69,-83.87,3.06,-0.61,0.41,-0.53,-0.42
3.0,141.5,38.19,-9.5,141.5,38.19,-9.5,-0.31,0.29,0.17,0.89,3.0,290.69,-83.81,3.06,290.69,-83.81,3.06,-0.61,0.41,-0.53,-0.42
3.0,141.5,38.19,-9.5,141.5,38.19,-9.5,-0.31,0.29,0.17,0.89,3.0,290.69,-83.69,3.19,290.69,-83.69,3.19,-0.61,0.41,-0.53,-0.42
3.0,141.5,38.25,-9.5,141.5,38.25,-9.5,-0.31,0.29,0.17,0.89,3.0,290.75,-83.5,3.25,290.75,-83.5,3.25,-0.61,0.41,-0.53,-0.42
3.0,141.5,38.31,-9.5,141.5,38.31,-9.5,-0.31,0.29,0.17,0.89,3.0,290.75,-83.31,3.38,290.75,-83.31,3.38,-0.61,0.41,-0.53,-0.42
3.0,141.5,38.38,-9.5,141.5,38.38,-9.5,-0.31,0.29,0.17,0.89,3.0,290.81,-83.19,3.44,290.81,-83.19,3.44,-0.61,0.41,-0.53,-0.42
3.0,141.5,38.44,-9.56,141.5,38.44,-9.56,-0.31,0.29,0.17,0.89,3.0,290.81,-83.19,3.5,290.81,-83.19,3.5,-0.61,0.41,-0.53,-0.42
3.0,141.5,38.44,-9.5,141.5,38.44,-9.5,-0.31,0.29,0.17,0.89,3.0,290.88,-83.12,3.56,290.88,-83.12,3.56,-0.61,0.41,-0.53,-0.42
3.0,141.5,38.44,-9.5,141.5,38.44,-9.5,-0.31,0.29,0.17,0.89,3.0,290.88,-83.12,32.38,290.88,-83.12,32.38,-0.61,0.42,-0.53,-0.42
3.0,141.5,38.38,-9.56,141.5,38.38,-9.56,-0.31,0.29,0.17,0.89,3.0,290.94,-83.12,32.38,290.94,-83.12,32.38,-0.61,0.41,-0.53,-0.42
3.0,141.5,38.31,-9.69,141.5,38.31,-9.69,-0.31,0.29,0.18,0.89,3.0,291.0,-83.06,31.94,291.0,-83.06,31.94,-0.61,0.41,-0.53,-0.42
3.0,141.5,38.31,-9.75,141.5,38.31,-9.75,-0.31,0.29,0.18,0.89,3.0,291.13,-83.06,31.5,291.13,-83.06,31.5,-0.61,0.41,-0.53,-0.42
3.0,141.5,38.31,-9.75,141.5,38.31,-9.75,-0.31,0.29,0.18,0.89,3.0,291.13,-82.87,31.31,291.13,-82.87,31.31,-0.61,0.41,-0.53,-0.42
3.0,141.5,38.38,-9.69,141.5,38.38,-9.69,-0.31,0.29,0.17,0.89,3.0,291.13,-82.81,31.12,291.13,-82.81,31.12,-0.61,0.41,-0.53,-0.42
3.0,141.5,38.44,-9.69,141.5,38.44,-9.69,-0.31,0.29,0.18,0.89,3.0,291.19,-82.69,31.25,291.19,-82.69,31.25,-0.61,0.41,-0.52,-0.42
3.0,141.5,38.5,-9.69,141.5,38.5,-9.69,-0.31,0.29,0.18,0.89,3.0,291.25,-82.56,31.19,291.25,-82.56,31.19,-0.62,0.41,-0.52,-0.42
3.0,141.44,38.63,-9.63,141.44,38.63,-9.63,-0.31,0.29,0.18,0.89,3.0,291.31,-82.56,31.31,291.31,-82.56,31.31,-0.62,0.41,-0.52,-0.42
3.0,141.44,38.63,-9.5,141.44,38.63,-9.5,-0.31,0.29,0.17,0.89,3.0,291.25,-82.69,31.75,291.25,-82.69,31.75,-0.61,0.41,-0.53,-0.42
3.0,141.44,38.63,-9.44,141.44,38.63,-9.44,-0.31,0.29,0.17,0.89,3.0,291.25,-82.87,32.63,291.25,-82.87,32.63,-0.61,0.41,-0.53,-0.42
3.0,141.44,38.63,-9.38,141.44,38.63,-9.38,-0.31,0.29,0.17,0.89,3.0,291.19,-83.06,33.44,291.19,-83.06,33.44,-0.61,0.42,-0.53,-0.42
3.0,141.44,38.63,-9.38,141.44,38.63,-9.38,-0.31,0.29,0.17,0.89,3.0,291.13,-82.87,33.81,291.13,-82.87,33.81,-0.61,0.42,-0.52,-0.42
3.0,141.44,38.63,-9.38,141.44,38.63,-9.38,-0.31,0.29,0.17,0.89,3.0,291.06,-82.69,33.25,291.06,-82.69,33.25,-0.61,0.42,-0.52,-0.42
3.0,141.44,38.63,-9.44,141.44,38.63,-9.44,-0.31,0.29,0.17,0.89,3.0,290.94,-82.69,32.19,290.94,-82.69,32.19,-0.61,0.41,-0.52,-0.42
3.0,141.44,38.63,-9.56,141.44,38.63,-9.56,-0.31,0.29,0.18,0.89,3.0,290.69,-82.62,31.0,290.69,-82.62,31.0,-0.61,0.41,-0.52,-0.42
3.0,141.44,38.63,-9.56,141.44,38.63,-9.56,-0.31,0.29,0.17,0.89,3.0,290.5,-82.56,30.87,290.5,-82.56,30.87,-0.61,0.42,-0.52,-0.42
3.0,141.44,38.5,-9.56,141.44,38.5,-9.56,-0.31,0.29,0.17,0.89,3.0,290.31,-82.75,31.69,290.31,-82.75,31.69,-0.61,0.42,-0.52,-0.42
3.0,141.44,38.38,-9.63,141.44,38.38,-9.63,-0.31,0.29,0.17,0.89,3.0,290.31,-82.94,32.44,290.31,-82.94,32.44,-0.61,0.42,-0.52,-0.42
3.0,141.44,38.19,-9.75,141.44,38.19,-9.75,-0.31,0.29,0.18,0.89,3.0,290.44,-83.0,32.63,290.44,-83.0,32.63,-0.61,0.42,-0.52,-0.42
3.0,141.44,38.13,-9.94,141.44,38.13,-9.94,-0.31,0.29,0.18,0.89,3.0,290.56,-83.19,3.63,290.56,-83.19,3.63,-0.61,0.42,-0.53,-0.42
3.0,141.44,38.13,-9.94,141.44,38.13,-9.94,-0.31,0.29,0.18,0.89,3.0,290.56,-83.44,3.56,290.56,-83.44,3.56,-0.61,0.42,-0.53,-0.42
3.0,141.44,38.13,-9.94,141.44,38.13,-9.94,-0.31,0.29,0.18,0.89,3.0,290.44,-83.44,3.56,290.44,-83.44,3.56,-0.61,0.42,-0.53,-0.42
3.0,141.44,38.13,-9.81,141.44,38.13,-9.81,-0.31,0.29,0.18,0.89,3.0,290.38,-83.44,3.56,290.38,-83.44,3.56,-0.61,0.42,-0.53,-0.42
3.0,141.44,38.19,-9.81,141.44,38.19,-9.81,-0.31,0.29,0.18,0.89,3.0,290.44,-83.5,3.63,290.44,-83.5,3.63,-0.61,0.42,-0.53,-0.42
3.0,141.44,38.13,-9.88,141.44,38.13,-9.88,-0.31,0.29,0.18,0.89,3.0,290.44,-83.5,3.63,290.44,-83.5,3.63,-0.61,0.42,-0.53,-0.42
3.0,141.44,38.06,-9.94,141.44,38.06,-9.94,-0.31,0.29,0.18,0.89,3.0,290.38,-83.5,3.69,290.38,-83.5,3.69,-0.61,0.42,-0.53,-0.42
3.0,141.44,38.06,-9.94,141.44,38.06,-9.94,-0.31,0.29,0.18,0.89,3.0,290.38,-83.44,3.75,290.38,-83.44,3.75,-0.61,0.42,-0.53,-0.42
3.0,141.44,38.06,-9.94,141.44,38.06,-9.94,-0.31,0.29,0.18,0.89,3.0,290.38,-83.5,3.75,290.38,-83.5,3.75,-0.61,0.42,-0.53,-0.42
3.0,141.38,38.06,-10.0,141.38,38.06,-10.0,-0.31,0.28,0.18,0.89,3.0,290.38,-83.31,3.88,290.38,-83.31,3.88,-0.61,0.42,-0.52,-0.42
3.0,141.44,38.06,-10.0,141.44,38.06,-10.0,-0.31,0.29,0.18,0.89,3.0,290.38,-83.12,4.0,290.38,-83.12,4.0,-0.61,0.42,-0.52,-0.42
3.0,141.44,38.06,-10.0,141.44,38.06,-10.0,-0.31,0.29,0.18,0.89,3.0,290.31,-83.12,3.94,290.31,-83.12,3.94,-0.61,0.42,-0.52,-0.42
3.0,141.38,38.06,-10.06,141.38,38.06,-10.06,-0.31,0.28,0.18,0.89,3.0,290.25,-83.25,3.94,290.25,-83.25,3.94,-0.61,0.42,-0.52,-0.42
3.0,141.38,38.06,-10.0,141.38,38.06,-10.0,-0.31,0.28,0.18,0.89,3.0,290.19,-83.25,3.94,290.19,-83.25,3.94,-0.61,0.42,-0.52,-0.42
3.0,141.38,38.06,-9.88,141.38,38.06,-9.88,-0.31,0.29,0.18,0.89,3.0,290.06,-83.31,3.94,290.06,-83.31,3.94,-0.61,0.42,-0.52,-0.42
3.0,141.38,38.06,-9.75,141.38,38.06,-9.75,-0.31,0.29,0.18,0.89,3.0,289.88,-83.31,3.94,289.88,-83.31,3.94,-0.61,0.42,-0.52,-0.42
3.0,141.38,38.06,-9.69,141.38,38.06,-9.69,-0.31,0.29,0.17,0.89,3.0,289.63,-83.44,3.88,289.63,-83.44,3.88,-0.6,0.42,-0.52,-0.43
3.0,141.38,38.06,-9.63,141.38,38.06,-9.63,-0.31,0.29,0.17,0.89,3.0,289.56,-83.62,3.75,289.56,-83.62,3.75,-0.6,0.42,-0.52,-0.43
3.0,141.38,38.13,-9.69,141.38,38.13,-9.69,-0.31,0.29,0.18,0.89,3.0,289.63,-83.87,3.56,289.63,-83.87,3.56,-0.6,0.42,-0.53,-0.42
3.0,141.31,38.19,-9.81,141.31,38.19,-9.81,-0.31,0.29,0.18,0.89,3.0,289.75,-84.25,3.38,289.75,-84.25,3.38,-0.6,0.42,-0.53,-0.42
3.0,141.31,38.38,-9.81,141.31,38.38,-9.81,-0.31,0.29,0.18,0.89,3.0,289.81,-84.0,3.63,289.81,-84.0,3.63,-0.6,0.42,-0.53,-0.42
3.0,141.31,38.5,-9.63,141.31,38.5,-9.63,-0.31,0.29,0.18,0.89,3.0,289.75,-83.62,3.88,289.75,-83.62,3.88,-0.6,0.43,-0.52,-0.42
3.0,141.31,38.44,-9.63,141.31,38.44,-9.63,-0.31,0.29,0.18,0.89,3.0,289.63,-83.69,3.81,289.63,-83.69,3.81,-0.6,0.43,-0.53,-0.42
3.0,141.31,38.31,-9.75,141.31,38.31,-9.75,-0.31,0.29,0.18,0.89,3.0,289.63,-83.62,3.88,289.63,-83.62,3.88,-0.6,0.43,-0.52,-0.42
3.0,141.25,38.31,-9.75,141.25,38.31,-9.75,-0.31,0.29,0.18,0.89,3.0,289.63,-83.62,3.94,289.63,-83.62,3.94,-0.6,0.43,-0.52,-0.42
3.0,141.25,38.25,-9.75,141.25,38.25,-9.75,-0.31,0.29,0.18,0.89,3.0,289.5,-83.81,3.88,289.5,-83.81,3.88,-0.6,0.43,-0.53,-0.42
3.0,141.25,38.19,-9.81,141.25,38.19,-9.81,-0.31,0.29,0.18,0.89,3.0,289.5,-83.94,3.88,289.5,-83.94,3.88,-0.6,0.43,-0.53,-0.42
3.0,141.25,38.13,-9.94,141.25,38.13,-9.94,-0.31,0.29,0.18,0.89,3.0,289.56,-83.69,4.0,289.56,-83.69,4.0,-0.6,0.43,-0.52,-0.42
3.0,141.25,38.13,-10.0,141.25,38.13,-10.0,-0.31,0.29,0.18,0.89,3.0,289.69,-83.31,4.25,289.69,-83.31,4.25,-0.6,0.43,-0.52,-0.42
3.0,141.25,38.19,-10.0,141.25,38.19,-10.0,-0.31,0.29,0.18,0.89,3.0,289.81,-83.19,4.31,289.81,-83.19,4.31,-0.6,0.43,-0.52,-0.42
3.0,141.25,38.31,-9.94,141.25,38.31,-9.94,-0.31,0.29,0.18,0.89,3.0,289.81,-82.87,40.25,289.81,-82.87,40.25,-0.61,0.43,-0.52,-0.43
3.0,141.31,38.38,-9.75,141.31,38.38,-9.75,-0.31,0.29,0.18,0.89,3.0,289.75,-82.69,40.63,289.75,-82.69,40.63,-0.61,0.43,-0.52,-0.43
3.0,141.31,38.38,-9.56,141.31,38.38,-9.56,-0.31,0.29,0.17,0.89,3.0,289.75,-82.69,41.06,289.75,-82.69,41.06,-0.61,0.43,-0.52,-0.43
3.0,141.38,38.31,-9.5,141.38,38.31,-9.5,-0.31,0.29,0.17,0.89,3.0,289.81,-82.69,40.81,289.81,-82.69,40.81,-0.61,0.43,-0.52,-0.43
3.0,141.38,38.31,-9.44,141.38,38.31,-9.44,-0.31,0.29,0.17,0.89,3.0,289.88,-82.62,40.69,289.88,-82.62,40.69,-0.61,0.43,-0.52,-0.43
3.0,141.38,38.31,-9.44,141.38,38.31,-9.44,-0.31,0.29,0.17,0.89,3.0,289.94,-82.56,40.75,289.94,-82.56,40.75,-0.61,0.43,-0.52,-0.43
3.0,141.38,38.44,-9.56,141.38,38.44,-9.56,-0.31,0.29,0.17,0.89,3.0,290.19,-82.25,39.63,290.19,-82.25,39.63,-0.61,0.43,-0.51,-0.42
3.0,141.31,38.5,-9.94,141.31,38.5,-9.94,-0.31,0.29,0.18,0.89,3.0,290.44,-81.94,38.0,290.44,-81.94,38.0,-0.61,0.43,-0.51,-0.42
3.0,141.19,38.5,-10.19,141.19,38.5,-10.19,-0.31,0.29,0.18,0.89,3.0,290.44,-81.69,37.69,290.44,-81.69,37.69,-0.61,0.43,-0.51,-0.43
3.0,141.19,38.44,-10.25,141.19,38.44,-10.25,-0.31,0.29,0.18,0.89,3.0,290.38,-81.62,38.13,290.38,-81.62,38.13,-0.61,0.43,-0.51,-0.43
3.0,141.19,38.19,-10.44,141.19,38.19,-10.44,-0.31,0.28,0.18,0.89,3.0,290.38,-81.87,38.56,290.38,-81.87,38.56,-0.61,0.43,-0.51,-0.42
3.0,141.19,37.94,-10.75,141.19,37.94,-10.75,-0.31,0.28,0.18,0.89,3.0,290.38,-82.0,38.94,290.38,-82.0,38.94,-0.61,0.43,-0.51,-0.43
3.0,141.19,37.88,-10.81,141.19,37.88,-10.81,-0.31,0.28,0.18,0.89,3.0,290.31,-81.37,38.81,290.31,-81.37,38.81,-0.61,0.43,-0.51,-0.43
3.0,141.25,37.94,-10.63,141.25,37.94,-10.63,-0.31,0.28,0.18,0.89,3.0,290.31,-80.19,38.44,290.31,-80.19,38.44,-0.62,0.43,-0.5,-0.43
3.0,141.25,37.94,-10.63,141.25,37.94,-10.63,-0.31,0.28,0.18,0.89,3.0,290.19,-79.94,38.31,290.19,-79.94,38.31,-0.62,0.43,-0.49,-0.43
3.0,141.25,37.94,-10.75,141.25,37.94,-10.75,-0.31,0.28,0.18,0.89,3.0,290.25,-80.0,38.5,290.25,-80.0,38.5,-0.62,0.43,-0.5,-0.43
3.0,141.19,38.0,-11.0,141.19,38.0,-11.0,-0.31,0.28,0.18,0.89,3.0,290.31,-79.94,38.75,290.31,-79.94,38.75,-0.62,0.43,-0.49,-0.43
3.0,141.13,38.0,-11.25,141.13,38.0,-11.25,-0.31,0.28,0.19,0.89,3.0,290.5,-79.81,39.13,290.5,-79.81,39.13,-0.62,0.43,-0.49,-0.43
3.0,141.19,37.94,-11.5,141.19,37.94,-11.5,-0.31,0.28,0.19,0.89,3.0,290.75,-79.75,39.25,290.75,-79.75,39.25,-0.62,0.43,-0.49,-0.43
3.0,141.25,37.69,-11.81,141.25,37.69,-11.81,-0.31,0.28,0.19,0.89,3.0,291.0,-79.75,39.13,291.0,-79.75,39.13,-0.62,0.43,-0.5,-0.43
3.0,141.25,37.5,-11.94,141.25,37.5,-11.94,-0.31,0.28,0.19,0.89,3.0,291.0,-79.81,39.25,291.0,-79.81,39.25,-0.62,0.43,-0.5,-0.43
3.0,141.25,37.31,-11.88,141.25,37.31,-11.88,-0.31,0.27,0.19,0.89,3.0,290.88,-79.94,39.5,290.88,-79.94,39.5,-0.62,0.43,-0.5,-0.43
3.0,141.25,37.25,-11.88,141.25,37.25,-11.88,-0.31,0.27,0.19,0.89,3.0,290.75,-80.0,39.69,290.75,-80.0,39.69,-0.62,0.43,-0.5,-0.43
3.0,141.25,37.19,-12.0,141.25,37.19,-12.0,-0.31,0.27,0.19,0.89,3.0,290.69,-80.0,39.88,290.69,-80.0,39.88,-0.62,0.43,-0.5,-0.43
3.0,141.25,37.13,-12.19,141.25,37.13,-12.19,-0.31,0.27,0.19,0.89,3.0,290.69,-79.94,40.06,290.69,-79.94,40.06,-0.62,0.43,-0.5,-0.43
3.0,141.31,37.13,-12.25,141.31,37.13,-12.25,-0.31,0.27,0.19,0.89,3.0,290.75,-79.94,40.31,290.75,-79.94,40.31,-0.62,0.43,-0.5,-0.43
3.0,141.31,37.19,-12.31,141.31,37.19,-12.31,-0.31,0.27,0.19,0.89,3.0,290.75,-79.87,40.44,290.75,-79.87,40.44,-0.62,0.43,-0.49,-0.43
3.0,141.25,37.31,-12.25,141.25,37.31,-12.25,-0.31,0.27,0.19,0.89,3.0,290.88,-79.62,40.38,290.88,-79.62,40.38,-0.62,0.43,-0.49,-0.43
3.0,141.25,37.5,-12.19,141.25,37.5,-12.19,-0.31,0.28,0.19,0.89,3.0,290.94,-79.37,40.19,290.94,-79.37,40.19,-0.62,0.43,-0.49,-0.43
3.0,141.25,37.63,-12.19,141.25,37.63,-12.19,-0.31,0.28,0.19,0.89,3.0,290.94,-78.94,39.94,290.94,-78.94,39.94,-0.62,0.43,-0.49,-0.43
3.0,141.25,37.81,-12.06,141.25,37.81,-12.06,-0.31,0.28,0.19,0.89,3.0,290.94,-78.56,39.75,290.94,-78.56,39.75,-0.63,0.43,-0.48,-0.43
3.0,141.25,37.88,-12.06,141.25,37.88,-12.06,-0.31,0.28,0.19,0.89,3.0,291.0,-78.44,39.81,291.0,-78.44,39.81,-0.63,0.43,-0.48,-0.43
3.0,141.19,37.88,-12.06,141.19,37.88,-12.06,-0.31,0.28,0.19,0.89,3.0,291.06,-78.37,39.94,291.06,-78.37,39.94,-0.63,0.43,-0.48,-0.43
3.0,141.19,37.81,-12.19,141.19,37.81,-12.19,-0.31,0.28,0.19,0.89,3.0,291.06,-78.44,40.06,291.06,-78.44,40.06,-0.63,0.43,-0.48,-0.43
3.0,141.19,37.81,-12.25,141.19,37.81,-12.25,-0.31,0.28,0.19,0.89,3.0,291.13,-78.37,40.0,291.13,-78.37,40.0,-0.63,0.43,-0.48,-0.43
3.0,141.19,37.75,-12.31,141.19,37.75,-12.31,-0.31,0.28,0.19,0.89,3.0,291.06,-78.25,40.06,291.06,-78.25,40.06,-0.63,0.44,-0.48,-0.43
3.0,141.19,37.69,-12.25,141.19,37.69,-12.25,-0.31,0.28,0.19,0.89,3.0,291.0,-78.25,40.25,291.0,-78.25,40.25,-0.63,0.44,-0.48,-0.43
3.0,141.19,37.56,-12.31,141.19,37.56,-12.31,-0.31,0.28,0.19,0.89,3.0,291.0,-78.12,40.19,291.0,-78.12,40.19,-0.63,0.44,-0.48,-0.43
3.0,141.19,37.5,-12.44,141.19,37.5,-12.44,-0.31,0.27,0.19,0.89,3.0,291.0,-78.0,40.13,291.0,-78.0,40.13,-0.63,0.44,-0.48,-0.43
3.0,141.19,37.5,-12.5,141.19,37.5,-12.5,-0.31,0.27,0.19,0.89,3.0,291.0,-78.0,40.06,291.0,-78.0,40.06,-0.63,0.44,-0.48,-0.43
3.0,141.19,37.5,-12.63,141.19,37.5,-12.63,-0.31,0.27,0.19,0.89,3.0,291.06,-78.06,40.06,291.06,-78.06,40.06,-0.63,0.44,-0.48,-0.43
3.0,141.19,37.5,-12.63,141.19,37.5,-12.63,-0.31,0.27,0.19,0.89,3.0,291.13,-78.19,40.19,291.13,-78.19,40.19,-0.63,0.44,-0.48,-0.43
3.0,141.19,37.5,-12.63,141.19,37.5,-12.63,-0.31,0.27,0.19,0.89,3.0,291.19,-78.25,40.19,291.19,-78.25,40.19,-0.63,0.44,-0.48,-0.43
3.0,141.19,37.56,-12.63,141.19,37.56,-12.63,-0.31,0.28,0.19,0.89,3.0,291.19,-78.25,40.19,291.19,-78.25,40.19,-0.63,0.44,-0.48,-0.43
