Calibration_1,AccX_1,AccY_1,AccZ_1,Roll_1,Pitch_1,Yaw_1,QuatW_1,QuatX_1,QuatY_1,QuatZ_1,Calibration_2,AccX_2,AccY_2,AccZ_2,Roll_2,Pitch_2,Yaw_2,QuatW_2,QuatX_2,QuatY_2,QuatZ_2
0.0,7.69,3.19,6.56,7.69,3.19,6.56,1.0,-0.06,-0.02,-0.07,0.0,0.0,0.0,0.0,0.0,0.0,0.0,0.0,0.0,0.0,0.0
0.0,7.38,3.25,6.38,7.38,3.25,6.38,1.0,-0.06,-0.03,-0.06,0.0,0.5,0.0,-0.06,0.5,0.0,-0.06,1.0,0.0,-0.0,-0.01
0.0,7.19,3.13,5.94,7.19,3.13,5.94,1.0,-0.05,-0.02,-0.06,0.0,0.75,0.0,-0.06,0.75,0.0,-0.06,1.0,0.0,0.0,-0.01
0.0,6.88,2.69,5.25,6.88,2.69,5.25,1.0,-0.05,-0.02,-0.06,0.0,1.0,-0.06,0.06,1.0,-0.06,0.06,1.0,-0.0,0.0,-0.01
0.0,6.56,2.63,5.19,6.56,2.63,5.19,1.0,-0.05,-0.02,-0.06,0.0,1.44,0.12,0.31,1.44,0.12,0.31,1.0,-0.0,-0.0,-0.02
0.0,6.25,3.5,6.5,6.25,3.5,6.5,1.0,-0.06,-0.03,-0.05,0.0,2.13,0.69,0.88,2.13,0.69,0.88,1.0,-0.01,-0.01,-0.02
0.0,5.75,5.13,9.0,5.75,5.13,9.0,0.99,-0.08,-0.04,-0.05,0.0,2.31,1.06,1.0,2.31,1.06,1.0,1.0,-0.01,-0.01,-0.02
0.0,5.38,6.38,10.88,5.38,6.38,10.88,0.99,-0.1,-0.06,-0.04,0.0,2.19,1.19,0.63,2.19,1.19,0.63,1.0,-0.01,-0.01,-0.02
0.0,4.75,8.13,13.38,4.75,8.13,13.38,0.99,-0.12,-0.07,-0.04,0.0,2.19,1.12,0.25,2.19,1.12,0.25,1.0,-0.0,-0.01,-0.02
0.0,4.19,9.31,15.06,4.19,9.31,15.06,0.99,-0.14,-0.08,-0.03,0.0,2.0,1.0,0.12,2.0,1.0,0.12,1.0,-0.0,-0.01,-0.02
0.0,3.44,9.63,15.56,3.44,9.63,15.56,0.99,-0.14,-0.08,-0.03,0.0,1.94,1.0,-0.12,1.94,1.0,-0.12,1.0,0.0,-0.01,-0.02
0.0,2.75,9.13,14.75,2.75,9.13,14.75,0.99,-0.13,-0.08,-0.02,0.0,2.06,1.19,-0.44,2.06,1.19,-0.44,1.0,0.0,-0.01,-0.02
0.0,2.31,8.44,13.88,2.31,8.44,13.88,0.99,-0.12,-0.07,-0.02,0.0,2.06,1.0,-0.44,2.06,1.0,-0.44,1.0,0.0,-0.01,-0.02
0.0,1.81,7.38,12.56,1.81,7.38,12.56,0.99,-0.11,-0.06,-0.02,0.0,2.06,0.56,-0.25,2.06,0.56,-0.25,1.0,0.0,-0.01,-0.02
0.0,1.69,6.19,11.5,1.69,6.19,11.5,0.99,-0.1,-0.05,-0.02,0.0,2.0,0.31,-0.31,2.0,0.31,-0.31,1.0,0.0,-0.0,-0.02
0.0,1.63,5.19,11.19,1.63,5.19,11.19,0.99,-0.1,-0.04,-0.01,0.0,2.19,0.31,-0.37,2.19,0.31,-0.37,1.0,0.0,-0.0,-0.02
0.0,1.75,4.56,11.25,1.75,4.56,11.25,0.99,-0.1,-0.04,-0.02,0.0,2.69,0.31,-0.25,2.69,0.31,-0.25,1.0,0.0,-0.0,-0.02
0.0,1.75,4.5,11.63,1.75,4.5,11.63,0.99,-0.1,-0.04,-0.02,0.0,2.81,0.0,0.0,2.81,0.0,0.0,1.0,0.0,0.0,-0.03
0.0,1.75,4.56,11.94,1.75,4.56,11.94,0.99,-0.11,-0.04,-0.01,0.0,3.31,-0.06,-0.06,3.31,-0.06,-0.06,1.0,0.0,0.0,-0.03
0.0,1.5,4.5,12.25,1.5,4.5,12.25,0.99,-0.11,-0.04,-0.01,0.0,3.75,-0.06,-0.56,3.75,-0.06,-0.56,1.0,0.01,0.0,-0.03
0.0,1.37,4.38,12.19,1.37,4.38,12.19,0.99,-0.11,-0.04,-0.01,0.0,3.81,-0.06,-0.88,3.81,-0.06,-0.88,1.0,0.01,0.0,-0.03
0.0,1.56,3.75,11.88,1.56,3.75,11.88,0.99,-0.1,-0.03,-0.01,0.0,3.88,-0.12,-1.25,3.88,-0.12,-1.25,1.0,0.01,0.0,-0.03
0.0,0.06,-4.56,50.25,0.06,-4.56,50.25,0.9,-0.42,0.04,-0.0,0.0,4.06,0.12,-1.63,4.06,0.12,-1.63,1.0,0.02,-0.0,-0.04
0.0,1.12,-5.0,49.75,1.12,-5.0,49.75,0.91,-0.42,0.05,-0.01,0.0,4.25,0.69,-2.19,4.25,0.69,-2.19,1.0,0.02,-0.01,-0.04
0.0,1.81,-5.69,49.56,1.81,-5.69,49.56,0.91,-0.42,0.06,-0.01,0.0,4.44,1.0,-2.31,4.44,1.0,-2.31,1.0,0.02,-0.01,-0.04
0.0,2.25,-5.81,49.56,2.25,-5.81,49.56,0.91,-0.42,0.06,-0.02,0.0,3.94,47.5,-77.81,3.94,47.5,-77.81,0.76,0.42,-0.5,-0.03
0.0,2.25,-5.75,49.75,2.25,-5.75,49.75,0.91,-0.42,0.06,-0.02,0.0,4.5,47.19,-78.5,4.5,47.19,-78.5,0.75,0.42,-0.51,-0.03
0.0,1.75,-5.5,50.0,1.75,-5.5,50.0,0.9,-0.42,0.06,-0.01,0.0,5.56,46.56,-79.37,5.56,46.56,-79.37,0.75,0.43,-0.51,-0.04
0.0,0.75,-5.19,50.38,0.75,-5.19,50.38,0.9,-0.43,0.05,-0.0,0.0,6.75,45.69,-79.69,6.75,45.69,-79.69,0.75,0.43,-0.5,-0.05
0.0,359.63,-4.75,50.38,359.63,-4.75,50.38,0.9,-0.42,0.04,0.01,0.0,7.06,45.31,-79.31,7.06,45.31,-79.31,0.75,0.43,-0.5,-0.05
0.0,358.69,-4.25,49.69,358.69,-4.25,49.69,0.91,-0.42,0.04,0.01,0.0,6.94,45.19,-78.75,6.94,45.19,-78.75,0.75,0.43,-0.5,-0.05
0.0,358.06,-3.88,48.56,358.06,-3.88,48.56,0.91,-0.41,0.03,0.02,0.0,6.75,45.19,-78.37,6.75,45.19,-78.37,0.75,0.43,-0.5,-0.04
0.0,357.94,-3.94,47.19,357.94,-3.94,47.19,0.92,-0.4,0.03,0.02,0.0,6.31,45.44,-78.69,6.31,45.44,-78.69,0.75,0.43,-0.5,-0.04
0.0,358.31,-4.44,45.81,358.31,-4.44,45.81,0.92,-0.39,0.04,0.01,0.0,6.25,45.63,-79.37,6.25,45.63,-79.37,0.75,0.43,-0.5,-0.04
0.0,358.88,-4.94,45.0,358.88,-4.94,45.0,0.92,-0.38,0.05,0.01,0.0,6.63,45.63,-79.06,6.63,45.63,-79.06,0.75,0.43,-0.5,-0.04
0.0,0.19,-5.88,44.13,0.19,-5.88,44.13,0.93,-0.37,0.06,-0.01,0.0,6.94,45.63,-78.56,6.94,45.63,-78.56,0.75,0.42,-0.5,-0.05
0.0,1.5,-6.69,44.0,1.5,-6.69,44.0,0.93,-0.37,0.07,-0.02,0.0,7.25,45.56,-77.87,7.25,45.56,-77.87,0.76,0.42,-0.5,-0.05
0.0,2.56,-6.81,44.13,2.56,-6.81,44.13,0.92,-0.37,0.07,-0.02,0.0,6.56,45.88,-77.87,6.56,45.88,-77.87,0.75,0.42,-0.5,-0.04
0.0,2.88,-6.56,44.25,2.88,-6.56,44.25,0.92,-0.37,0.07,-0.02,0.0,5.31,46.63,-79.12,5.31,46.63,-79.12,0.75,0.43,-0.51,-0.03
0.0,2.94,-5.75,44.13,2.94,-5.75,44.13,0.93,-0.37,0.06,-0.02,0.0,4.13,47.69,-80.19,4.13,47.69,-80.19,0.74,0.42,-0.51,-0.02
0.0,2.38,-4.94,43.75,2.38,-4.94,43.75,0.93,-0.37,0.05,-0.02,0.0,2.81,49.25,-81.75,2.81,49.25,-81.75,0.73,0.42,-0.53,-0.02
0.0,2.25,-4.0,42.56,2.25,-4.0,42.56,0.93,-0.36,0.04,-0.02,0.0,2.94,50.13,-85.0,2.94,50.13,-85.0,0.73,0.43,-0.54,-0.02
0.0,3.06,-3.44,41.19,3.06,-3.44,41.19,0.94,-0.35,0.04,-0.03,0.0,3.13,50.75,-86.37,3.13,50.75,-86.37,0.72,0.42,-0.55,-0.02
0.0,4.56,-3.44,40.63,4.56,-3.44,40.63,0.94,-0.34,0.05,-0.05,0.0,2.81,52.25,-86.56,2.81,52.25,-86.56,0.72,0.4,-0.56,-0.02
0.0,7.81,-4.5,41.38,7.81,-4.5,41.38,0.93,-0.35,0.07,-0.08,0.0,3.31,53.88,-85.94,3.31,53.88,-85.94,0.72,0.39,-0.58,-0.02
0.0,12.31,-5.5,44.44,12.31,-5.5,44.44,0.91,-0.38,0.1,-0.11,0.0,5.25,54.13,-87.12,5.25,54.13,-87.12,0.72,0.38,-0.59,-0.04
0.0,16.69,-6.69,48.81,16.69,-6.69,48.81,0.89,-0.41,0.13,-0.14,0.0,7.19,54.0,-87.06,7.19,54.0,-87.06,0.72,0.37,-0.59,-0.05
0.0,20.44,-7.56,54.44,20.44,-7.56,54.44,0.86,-0.45,0.16,-0.16,0.0,10.88,52.75,-84.81,10.88,52.75,-84.81,0.73,0.36,-0.58,-0.08
0.0,22.5,-7.69,60.69,22.5,-7.69,60.69,0.84,-0.49,0.17,-0.17,0.0,13.88,51.25,-82.37,13.88,51.25,-82.37,0.73,0.35,-0.57,-0.09
0.0,22.44,-6.38,67.25,22.44,-6.38,67.25,0.82,-0.53,0.17,-0.16,0.0,13.81,50.75,-79.25,13.81,50.75,-79.25,0.74,0.35,-0.56,-0.09
0.0,19.75,-5.63,73.37,19.75,-5.63,73.37,0.79,-0.58,0.16,-0.14,0.0,12.19,50.5,-76.37,12.19,50.5,-76.37,0.75,0.35,-0.55,-0.08
0.0,15.25,-4.38,77.44,15.25,-4.38,77.44,0.77,-0.61,0.13,-0.1,0.0,11.31,50.19,-74.75,11.31,50.19,-74.75,0.76,0.35,-0.54,-0.07
0.0,11.31,-4.88,79.62,11.31,-4.88,79.62,0.76,-0.63,0.12,-0.06,0.0,10.81,49.31,-72.94,10.81,49.31,-72.94,0.77,0.36,-0.52,-0.07
0.0,8.0,-5.88,79.0,8.0,-5.88,79.0,0.78,-0.62,0.1,-0.05,0.0,10.56,48.38,-71.69,10.56,48.38,-71.69,0.78,0.36,-0.51,-0.07
0.0,8.69,-3.88,71.31,8.69,-3.88,71.31,0.83,-0.55,0.09,-0.07,0.0,9.75,47.88,-71.69,9.75,47.88,-71.69,0.77,0.37,-0.51,-0.06
0.0,11.69,-5.06,60.13,11.69,-5.06,60.13,0.87,-0.47,0.11,-0.1,0.0,8.38,47.81,-73.81,8.38,47.81,-73.81,0.76,0.39,-0.51,-0.05
0.0,16.0,-6.81,52.69,16.0,-6.81,52.69,0.89,-0.42,0.14,-0.13,0.0,7.38,47.63,-77.0,7.38,47.63,-77.0,0.75,0.41,-0.51,-0.05
0.0,16.44,-10.5,51.06,16.44,-10.5,51.06,0.89,-0.41,0.17,-0.13,0.0,6.13,47.63,-79.44,6.13,47.63,-79.44,0.75,0.42,-0.52,-0.04
0.0,14.63,-13.63,53.5,14.63,-13.63,53.5,0.88,-0.43,0.2,-0.09,0.0,4.63,48.0,-82.5,4.63,48.0,-82.5,0.74,0.43,-0.52,-0.03
0.0,8.0,-18.56,57.94,8.0,-18.56,57.94,0.86,-0.45,0.22,-0.04,0.0,4.75,47.31,-87.75,4.75,47.31,-87.75,0.72,0.45,-0.53,-0.03
0.0,358.81,-20.62,57.56,358.81,-20.62,57.56,0.87,-0.46,0.18,0.03,0.0,4.81,46.25,-93.37,4.81,46.25,-93.37,0.69,0.48,-0.54,-0.03
0.0,348.81,-18.56,51.88,348.81,-18.56,51.88,0.89,-0.43,0.14,0.09,0.0,4.88,44.56,-99.56,4.88,44.56,-99.56,0.66,0.51,-0.55,-0.03
0.0,336.56,-15.19,43.69,336.56,-15.19,43.69,0.9,-0.38,0.07,0.19,0.0,6.56,42.56,-106.12,6.56,42.56,-106.12,0.63,0.53,-0.57,-0.04
0.0,324.06,-10.56,36.19,324.06,-10.56,36.19,0.9,-0.32,-0.0,0.29,0.0,10.19,39.06,-109.87,10.19,39.06,-109.87,0.6,0.56,-0.57,-0.06
0.0,310.69,-4.88,30.0,310.69,-4.88,30.0,0.88,-0.25,-0.07,0.4,0.0,11.38,38.0,-111.06,11.38,38.0,-111.06,0.6,0.56,-0.57,-0.06
0.0,302.63,0.44,27.12,302.63,0.44,27.12,0.84,-0.17,-0.15,0.49,0.0,15.75,35.88,-108.0,15.75,35.88,-108.0,0.61,0.56,-0.56,-0.1
0.0,296.94,12.94,21.69,296.94,12.94,21.69,0.83,-0.06,-0.21,0.52,0.0,21.37,32.44,-107.37,21.37,32.44,-107.37,0.6,0.57,-0.55,-0.12
0.0,293.31,20.37,13.56,293.31,20.37,13.56,0.81,0.03,-0.2,0.54,0.0,22.69,31.06,-107.69,22.69,31.06,-107.69,0.6,0.58,-0.55,-0.12
0.0,292.5,20.44,6.06,292.5,20.44,6.06,0.82,0.06,-0.16,0.54,0.0,23.69,30.0,-107.0,23.69,30.0,-107.0,0.6,0.58,-0.54,-0.13
0.0,294.75,13.94,3.56,294.75,13.94,3.56,0.85,0.02,-0.1,0.52,0.0,23.37,29.81,-106.19,23.37,29.81,-106.19,0.6,0.58,-0.53,-0.12
0.0,301.63,4.06,4.94,301.63,4.06,4.94,0.88,-0.04,-0.03,0.47,0.0,22.44,29.81,-106.12,22.44,29.81,-106.12,0.6,0.58,-0.53,-0.12
0.0,310.06,-3.5,9.94,310.06,-3.5,9.94,0.91,-0.12,-0.01,0.39,0.0,21.69,29.87,-105.75,21.69,29.87,-105.75,0.61,0.59,-0.52,-0.12
0.0,317.75,-4.69,19.94,317.75,-4.69,19.94,0.92,-0.21,-0.04,0.33,0.0,21.69,29.69,-104.94,21.69,29.69,-104.94,0.61,0.59,-0.52,-0.12
0.0,324.56,-2.31,32.94,324.56,-2.31,32.94,0.91,-0.31,-0.08,0.28,0.0,22.87,28.87,-104.44,22.87,28.87,-104.44,0.61,0.59,-0.51,-0.12
0.0,328.25,-1.0,44.5,328.25,-1.0,44.5,0.89,-0.39,-0.1,0.24,0.0,24.25,28.0,-104.0,24.25,28.0,-104.0,0.61,0.59,-0.51,-0.13
0.0,332.75,0.25,52.13,332.75,0.25,52.13,0.87,-0.44,-0.11,0.21,0.0,26.69,26.75,-102.81,26.69,26.75,-102.81,0.62,0.59,-0.5,-0.15
0.0,335.31,1.5,54.31,335.31,1.5,54.31,0.87,-0.44,-0.11,0.19,0.0,29.5,25.44,-102.06,29.5,25.44,-102.06,0.62,0.58,-0.5,-0.16
0.0,340.31,4.31,52.31,340.31,4.31,52.31,0.89,-0.41,-0.11,0.14,0.0,30.81,24.87,-102.12,30.81,24.87,-102.12,0.61,0.58,-0.5,-0.17
0.0,347.13,4.88,48.0,347.13,4.88,48.0,0.91,-0.4,-0.09,0.1,0.0,32.56,24.37,-100.87,32.56,24.37,-100.87,0.62,0.57,-0.5,-0.18
0.0,351.44,1.37,48.06,351.44,1.37,48.06,0.91,-0.41,-0.04,0.07,0.0,32.88,24.87,-99.44,32.88,24.87,-99.44,0.63,0.56,-0.5,-0.18
0.0,355.75,3.5,51.81,355.75,3.5,51.81,0.9,-0.44,-0.05,0.03,0.0,32.25,25.81,-98.81,32.25,25.81,-98.81,0.63,0.55,-0.51,-0.18
0.0,355.69,4.88,58.81,355.69,4.88,58.81,0.87,-0.49,-0.07,0.03,0.0,31.56,27.12,-97.56,31.56,27.12,-97.56,0.64,0.54,-0.51,-0.18
0.0,356.25,5.94,64.0,356.25,5.94,64.0,0.83,-0.54,-0.08,0.03,0.0,31.94,27.94,-96.44,31.94,27.94,-96.44,0.64,0.53,-0.52,-0.18
0.0,356.94,3.25,71.56,356.94,3.25,71.56,0.8,-0.6,-0.03,0.02,0.0,31.94,29.12,-96.0,31.94,29.12,-96.0,0.65,0.52,-0.53,-0.19
0.0,359.88,-1.94,77.56,359.88,-1.94,77.56,0.77,-0.63,0.05,-0.01,0.0,31.94,30.44,-95.69,31.94,30.44,-95.69,0.65,0.51,-0.54,-0.19
0.0,4.13,-6.19,77.81,4.13,-6.19,77.81,0.78,-0.61,0.11,-0.03,0.0,31.75,31.75,-95.5,31.75,31.75,-95.5,0.65,0.49,-0.54,-0.19
0.0,4.44,-10.25,71.62,4.44,-10.25,71.62,0.82,-0.55,0.13,-0.03,0.0,31.56,33.0,-95.69,31.56,33.0,-95.69,0.65,0.48,-0.56,-0.18
0.0,1.44,-10.31,60.94,1.44,-10.31,60.94,0.88,-0.47,0.09,-0.0,0.0,31.62,33.81,-95.44,31.62,33.81,-95.44,0.65,0.47,-0.56,-0.19
0.0,357.63,-5.63,50.06,357.63,-5.63,50.06,0.91,-0.41,0.02,0.03,0.0,31.75,34.69,-95.44,31.75,34.69,-95.44,0.65,0.46,-0.57,-0.19
0.0,352.69,-1.75,45.75,352.69,-1.75,45.75,0.92,-0.39,-0.02,0.07,0.0,31.25,35.88,-95.5,31.25,35.88,-95.5,0.65,0.45,-0.58,-0.18
0.0,349.19,-0.19,45.0,349.19,-0.19,45.0,0.92,-0.38,-0.03,0.09,0.0,30.94,37.13,-96.0,30.94,37.13,-96.0,0.65,0.44,-0.59,-0.18
0.0,348.38,0.12,44.75,348.38,0.12,44.75,0.92,-0.38,-0.04,0.09,0.0,30.69,38.0,-97.75,30.69,38.0,-97.75,0.64,0.44,-0.6,-0.17
0.0,348.88,-0.06,44.31,348.88,-0.06,44.31,0.92,-0.38,-0.04,0.09,0.0,30.06,39.25,-99.44,30.06,39.25,-99.44,0.64,0.43,-0.62,-0.17
0.0,353.88,2.94,44.38,353.88,2.94,44.38,0.92,-0.38,-0.05,0.05,0.0,28.81,40.69,-100.94,28.81,40.69,-100.94,0.63,0.42,-0.63,-0.16
0.0,355.81,4.0,45.38,355.81,4.0,45.38,0.92,-0.38,-0.05,0.03,0.0,27.25,43.19,-101.94,27.25,43.19,-101.94,0.63,0.4,-0.64,-0.15
0.0,357.31,2.63,45.69,357.31,2.63,45.69,0.92,-0.39,-0.03,0.02,0.0,26.87,45.38,-102.25,26.87,45.38,-102.25,0.63,0.38,-0.66,-0.15
0.0,1.88,5.63,43.69,1.88,5.63,43.69,0.93,-0.36,-0.04,-0.02,0.0,26.25,47.5,-103.12,26.25,47.5,-103.12,0.63,0.36,-0.67,-0.15
0.0,4.5,3.88,38.25,4.5,3.88,38.25,0.95,-0.31,-0.02,-0.06,0.0,24.62,50.75,-104.12,24.62,50.75,-104.12,0.64,0.33,-0.68,-0.14
0.0,11.5,2.5,32.75,11.5,2.5,32.75,0.95,-0.29,0.02,-0.11,0.0,23.06,54.88,-102.81,23.06,54.88,-102.81,0.65,0.29,-0.69,-0.13
0.0,13.69,-1.63,37.19,13.69,-1.63,37.19,0.93,-0.33,0.06,-0.12,0.0,23.19,56.31,-102.75,23.19,56.31,-102.75,0.65,0.27,-0.7,-0.14
0.0,15.19,-2.38,45.38,15.19,-2.38,45.38,0.9,-0.4,0.08,-0.11,0.0,23.94,57.81,-102.87,23.94,57.81,-102.87,0.65,0.24,-0.71,-0.14
0.0,11.56,-3.31,53.25,11.56,-3.31,53.25,0.88,-0.46,0.07,-0.08,0.0,23.62,59.31,-102.12,23.62,59.31,-102.12,0.66,0.23,-0.71,-0.14
0.0,7.31,-2.06,55.88,7.31,-2.06,55.88,0.88,-0.47,0.05,-0.05,0.0,23.12,60.81,-100.5,23.12,60.81,-100.5,0.66,0.21,-0.7,-0.14
0.0,6.31,-1.31,57.19,6.31,-1.31,57.19,0.87,-0.48,0.04,-0.05,0.0,23.94,61.13,-98.75,23.94,61.13,-98.75,0.67,0.21,-0.7,-0.14
0.0,7.94,-2.69,61.69,7.94,-2.69,61.69,0.86,-0.51,0.06,-0.06,0.0,24.19,61.44,-96.19,24.19,61.44,-96.19,0.68,0.2,-0.69,-0.14
0.0,9.69,-4.44,68.44,9.69,-4.44,68.44,0.82,-0.55,0.09,-0.07,0.0,24.25,61.44,-93.69,24.25,61.44,-93.69,0.68,0.2,-0.69,-0.15
0.0,8.81,-5.13,73.44,8.81,-5.13,73.44,0.8,-0.59,0.1,-0.06,0.0,25.0,61.06,-90.69,25.0,61.06,-90.69,0.69,0.2,-0.68,-0.15
0.0,8.75,-3.5,73.25,8.75,-3.5,73.25,0.8,-0.59,0.08,-0.06,0.0,26.25,60.25,-87.37,26.25,60.25,-87.37,0.7,0.2,-0.67,-0.16
0.0,9.69,-2.25,70.56,9.69,-2.25,70.56,0.82,-0.56,0.07,-0.08,0.0,27.06,59.31,-84.56,27.06,59.31,-84.56,0.7,0.2,-0.66,-0.17
0.0,13.75,0.56,65.37,13.75,0.56,65.37,0.84,-0.53,0.06,-0.11,0.0,27.5,58.56,-82.81,27.5,58.56,-82.81,0.71,0.21,-0.65,-0.18
0.0,14.31,-0.25,67.5,14.31,-0.25,67.5,0.81,-0.57,0.07,-0.1,0.0,28.0,57.44,-80.25,28.0,57.44,-80.25,0.72,0.21,-0.64,-0.18
0.0,11.69,-0.75,75.37,11.69,-0.75,75.37,0.77,-0.63,0.07,-0.07,0.0,27.87,56.31,-78.37,27.87,56.31,-78.37,0.73,0.22,-0.63,-0.18
0.0,7.13,-1.63,82.75,7.13,-1.63,82.75,0.74,-0.67,0.06,-0.04,0.0,27.0,55.38,-76.37,27.0,55.38,-76.37,0.73,0.23,-0.61,-0.17
0.0,3.81,-2.56,86.25,3.81,-2.56,86.25,0.73,-0.69,0.06,-0.02,0.0,26.12,54.38,-75.19,26.12,54.38,-75.19,0.74,0.25,-0.6,-0.17
0.0,1.37,-4.63,87.56,1.37,-4.63,87.56,0.72,-0.69,0.06,-0.01,0.0,25.62,52.81,-74.81,25.62,52.81,-74.81,0.74,0.26,-0.59,-0.17
0.0,359.38,-7.19,86.31,359.38,-7.19,86.31,0.73,-0.68,0.08,0.0,0.0,25.75,49.81,-74.12,25.75,49.81,-74.12,0.75,0.28,-0.58,-0.17
0.0,355.81,-6.69,81.56,355.81,-6.69,81.56,0.76,-0.65,0.05,0.03,0.0,22.81,47.81,-70.37,22.81,47.81,-70.37,0.77,0.3,-0.54,-0.15
0.0,345.81,-6.75,74.12,345.81,-6.75,74.12,0.79,-0.6,-0.0,0.1,0.0,19.12,46.38,-72.19,19.12,46.38,-72.19,0.77,0.34,-0.53,-0.13
0.0,342.31,-4.25,69.44,342.31,-4.25,69.44,0.81,-0.56,-0.05,0.14,0.0,18.06,44.31,-78.06,18.06,44.31,-78.06,0.75,0.38,-0.53,-0.12
0.0,337.31,-4.94,68.75,337.31,-4.94,68.75,0.8,-0.57,-0.06,0.16,0.0,18.0,43.38,-80.62,18.0,43.38,-80.62,0.73,0.41,-0.53,-0.12
0.0,337.13,-6.38,73.31,337.13,-6.38,73.31,0.78,-0.61,-0.04,0.15,0.0,22.12,39.56,-85.81,22.12,39.56,-85.81,0.7,0.45,-0.53,-0.14
0.0,343.56,-6.38,77.94,343.56,-6.38,77.94,0.77,-0.63,-0.0,0.1,0.0,24.0,36.5,-90.94,24.0,36.5,-90.94,0.68,0.48,-0.53,-0.15
0.0,345.75,-9.5,76.94,345.75,-9.5,76.94,0.79,-0.61,0.03,0.09,0.0,24.69,34.19,-93.94,24.69,34.19,-93.94,0.66,0.51,-0.53,-0.15
0.0,347.0,-7.88,67.87,347.0,-7.88,67.87,0.84,-0.54,0.01,0.1,0.0,25.37,31.44,-97.25,25.37,31.44,-97.25,0.65,0.54,-0.52,-0.14
0.0,343.5,-7.0,61.44,343.5,-7.0,61.44,0.85,-0.51,-0.0,0.14,0.0,23.81,30.81,-98.37,23.81,30.81,-98.37,0.65,0.55,-0.51,-0.14
0.0,333.56,-12.19,63.25,333.56,-12.19,63.25,0.82,-0.53,-0.0,0.22,0.0,23.87,30.25,-97.44,23.87,30.25,-97.44,0.65,0.56,-0.5,-0.14
0.0,325.0,-10.63,61.63,325.0,-10.63,61.63,0.82,-0.51,-0.05,0.26,0.0,24.69,28.87,-99.5,24.69,28.87,-99.5,0.64,0.57,-0.5,-0.14
0.0,316.25,-6.19,59.06,316.25,-6.19,59.06,0.81,-0.47,-0.15,0.33,0.0,24.19,28.87,-99.5,24.19,28.87,-99.5,0.64,0.57,-0.5,-0.13
0.0,314.06,-1.94,58.81,314.06,-1.94,58.81,0.8,-0.46,-0.17,0.34,0.0,21.31,30.5,-97.44,21.31,30.5,-97.44,0.65,0.56,-0.49,-0.12
0.0,317.63,0.06,61.13,317.63,0.06,61.13,0.8,-0.47,-0.18,0.31,0.0,18.69,31.69,-96.19,18.69,31.69,-96.19,0.66,0.56,-0.49,-0.11
0.0,322.81,0.12,66.5,322.81,0.12,66.5,0.79,-0.52,-0.18,0.27,0.0,18.94,31.06,-97.31,18.94,31.06,-97.31,0.66,0.56,-0.49,-0.11
0.0,327.88,-0.31,70.5,327.88,-0.31,70.5,0.78,-0.56,-0.16,0.23,0.0,19.56,30.44,-97.87,19.56,30.44,-97.87,0.66,0.57,-0.48,-0.11
0.0,330.19,-0.31,71.94,330.19,-0.31,71.94,0.78,-0.57,-0.15,0.21,0.0,16.87,31.87,-95.37,16.87,31.87,-95.37,0.68,0.55,-0.47,-0.09
0.0,332.81,1.25,73.5,332.81,1.25,73.5,0.77,-0.59,-0.15,0.18,0.0,13.81,33.69,-92.25,13.81,33.69,-92.25,0.69,0.54,-0.47,-0.08
0.0,334.56,0.44,78.87,334.56,0.44,78.87,0.75,-0.63,-0.15,0.16,0.0,165.44,34.63,-90.37,165.44,34.63,-90.37,0.09,-0.33,-0.63,-0.7
0.0,338.56,2.06,85.0,338.56,2.06,85.0,0.71,-0.67,-0.15,0.13,0.0,165.38,35.44,-88.37,165.38,35.44,-88.37,0.09,-0.33,-0.61,-0.71
0.0,342.44,1.56,91.25,342.44,1.56,91.25,0.68,-0.71,-0.12,0.09,0.0,165.63,36.13,-86.5,165.63,36.13,-86.5,0.09,-0.34,-0.6,-0.72
0.0,348.63,1.37,93.81,348.63,1.37,93.81,0.69,-0.72,-0.09,0.06,0.0,165.44,37.31,-85.06,165.44,37.31,-85.06,0.09,-0.35,-0.59,-0.73
0.0,354.19,3.63,91.12,354.19,3.63,91.12,0.7,-0.71,-0.08,0.03,0.0,165.5,38.75,-83.81,165.5,38.75,-83.81,0.09,-0.36,-0.57,-0.73
0.0,355.0,3.31,89.31,355.0,3.31,89.31,0.71,-0.7,-0.07,0.03,0.0,165.44,40.25,-82.25,165.44,40.25,-82.25,0.09,-0.37,-0.56,-0.74
0.0,352.31,0.12,90.94,352.31,0.12,90.94,0.69,-0.72,-0.04,0.05,0.0,165.0,41.94,-80.81,165.0,41.94,-80.81,0.1,-0.38,-0.54,-0.74
0.0,352.56,-0.37,93.81,352.56,-0.37,93.81,0.68,-0.73,-0.04,0.04,0.0,164.31,44.0,-79.56,164.31,44.0,-79.56,0.1,-0.39,-0.53,-0.74
0.0,354.19,-0.94,95.56,354.19,-0.94,95.56,0.67,-0.74,-0.02,0.03,0.0,164.13,45.88,-78.87,164.13,45.88,-78.87,0.1,-0.41,-0.51,-0.75
0.0,357.0,-0.63,95.19,357.0,-0.63,95.19,0.67,-0.74,-0.01,0.01,0.0,164.63,47.19,-79.12,164.63,47.19,-79.12,0.1,-0.42,-0.51,-0.74
0.0,359.63,0.37,95.87,359.63,0.37,95.87,0.67,-0.75,-0.0,-0.0,0.0,164.13,49.0,-79.44,164.13,49.0,-79.44,0.1,-0.44,-0.5,-0.74
0.0,2.25,0.81,97.56,2.25,0.81,97.56,0.66,-0.75,0.0,-0.01,0.0,164.31,50.56,-81.44,164.31,50.56,-81.44,0.1,-0.46,-0.49,-0.73
0.0,7.38,2.63,95.44,7.38,2.63,95.44,0.67,-0.74,0.01,-0.04,0.0,165.81,51.0,-84.5,165.81,51.0,-84.5,0.09,-0.48,-0.49,-0.72
0.0,11.94,5.0,90.69,11.94,5.0,90.69,0.7,-0.71,0.01,-0.07,0.0,165.38,52.13,-85.75,165.38,52.13,-85.75,0.09,-0.49,-0.49,-0.71
0.0,13.19,4.06,89.31,13.19,4.06,89.31,0.71,-0.7,0.03,-0.08,0.0,164.38,54.31,-88.19,164.38,54.31,-88.19,0.09,-0.52,-0.48,-0.7
0.0,15.0,5.56,87.75,15.0,5.56,87.75,0.71,-0.69,0.02,-0.1,0.0,166.25,54.69,-91.0,166.25,54.69,-91.0,0.08,-0.53,-0.47,-0.7
0.0,17.75,7.0,89.19,17.75,7.0,89.19,0.69,-0.71,0.03,-0.11,0.0,165.13,56.94,-91.62,165.13,56.94,-91.62,0.09,-0.55,-0.46,-0.69
0.0,20.75,7.13,93.31,20.75,7.13,93.31,0.67,-0.73,0.05,-0.13,3.0,164.38,58.75,-93.12,164.38,58.75,-93.12,0.09,-0.56,-0.45,-0.69
0.0,23.44,7.31,94.5,23.44,7.31,94.5,0.67,-0.73,0.06,-0.15,3.0,164.75,59.88,-94.56,164.75,59.88,-94.56,0.09,-0.57,-0.44,-0.69
0.0,26.25,8.31,92.44,26.25,8.31,92.44,0.68,-0.71,0.06,-0.16,3.0,163.38,62.0,-95.06,163.38,62.0,-95.06,0.1,-0.58,-0.43,-0.69
0.0,28.94,9.25,90.06,28.94,9.25,90.06,0.69,-0.7,0.07,-0.18,3.0,162.5,63.56,-96.25,162.5,63.56,-96.25,0.1,-0.59,-0.42,-0.68
0.0,30.87,9.13,89.0,30.87,9.13,89.0,0.69,-0.7,0.08,-0.19,3.0,165.25,62.94,-96.44,165.25,62.94,-96.44,0.09,-0.6,-0.41,-0.68
0.0,32.25,9.13,89.69,32.25,9.13,89.69,0.68,-0.7,0.09,-0.2,3.0,166.63,62.5,-95.69,166.63,62.5,-95.69,0.08,-0.6,-0.4,-0.69
0.0,31.87,9.44,91.81,31.87,9.44,91.81,0.67,-0.71,0.08,-0.19,3.0,166.81,63.06,-93.06,166.81,63.06,-93.06,0.08,-0.6,-0.39,-0.7
0.0,30.44,9.81,93.5,30.44,9.81,93.5,0.66,-0.73,0.07,-0.18,3.0,167.31,63.25,-90.37,167.31,63.25,-90.37,0.08,-0.59,-0.38,-0.7
0.0,254.13,9.38,92.87,254.13,9.38,92.87,0.42,-0.34,-0.64,0.55,3.0,168.88,62.63,-87.5,168.88,62.63,-87.5,0.07,-0.59,-0.38,-0.71
0.0,257.31,9.44,90.5,257.31,9.44,90.5,0.44,-0.35,-0.62,0.55,3.0,170.13,62.0,-84.0,170.13,62.0,-84.0,0.06,-0.58,-0.37,-0.72
0.0,261.0,9.5,89.94,261.0,9.5,89.94,0.46,-0.36,-0.61,0.54,3.0,170.81,61.31,-80.5,170.81,61.31,-80.5,0.06,-0.57,-0.37,-0.74
0.0,262.31,9.13,91.25,262.31,9.13,91.25,0.46,-0.39,-0.61,0.52,3.0,171.38,60.56,-76.75,171.38,60.56,-76.75,0.06,-0.56,-0.36,-0.74
0.0,262.75,8.69,94.0,262.75,8.69,94.0,0.45,-0.4,-0.62,0.51,3.0,172.75,59.13,-74.12,172.75,59.13,-74.12,0.05,-0.55,-0.36,-0.75
0.0,260.25,7.81,95.37,260.25,7.81,95.37,0.43,-0.39,-0.63,0.52,3.0,174.0,57.63,-72.31,174.0,57.63,-72.31,0.04,-0.54,-0.36,-0.76
0.0,258.25,8.63,92.94,258.25,8.63,92.94,0.44,-0.36,-0.62,0.54,3.0,175.31,56.06,-70.94,175.31,56.06,-70.94,0.03,-0.53,-0.36,-0.77
0.0,257.63,8.63,89.75,257.63,8.63,89.75,0.45,-0.35,-0.61,0.55,3.0,176.19,54.75,-69.56,176.19,54.75,-69.56,0.03,-0.52,-0.37,-0.77
0.0,258.19,8.06,88.62,258.19,8.06,88.62,0.45,-0.36,-0.6,0.55,3.0,176.38,54.0,-68.75,176.38,54.0,-68.75,0.02,-0.5,-0.37,-0.78
0.0,257.63,7.0,90.62,257.63,7.0,90.62,0.43,-0.38,-0.61,0.55,3.0,176.19,53.13,-67.69,176.19,53.13,-67.69,0.03,-0.5,-0.37,-0.78
0.0,255.81,5.94,92.75,255.81,5.94,92.75,0.42,-0.38,-0.62,0.55,3.0,175.75,52.31,-66.94,175.75,52.31,-66.94,0.03,-0.49,-0.38,-0.79
0.0,253.0,4.88,92.87,253.0,4.88,92.87,0.41,-0.38,-0.61,0.56,3.0,175.0,51.81,-66.44,175.0,51.81,-66.44,0.04,-0.48,-0.38,-0.79
0.0,250.38,3.56,90.94,250.38,3.56,90.94,0.4,-0.37,-0.6,0.58,3.0,174.44,51.19,-66.94,174.44,51.19,-66.94,0.04,-0.47,-0.39,-0.79
0.0,247.38,2.63,88.56,247.38,2.63,88.56,0.39,-0.36,-0.6,0.6,3.0,174.31,50.63,-68.31,174.31,50.63,-68.31,0.04,-0.47,-0.4,-0.78
0.0,243.5,1.44,88.0,243.5,1.44,88.0,0.37,-0.35,-0.6,0.61,3.0,174.38,50.0,-70.12,174.38,50.0,-70.12,0.04,-0.47,-0.41,-0.78
0.0,238.13,-1.56,89.62,238.13,-1.56,89.62,0.34,-0.36,-0.61,0.62,3.0,174.0,49.69,-72.19,174.0,49.69,-72.19,0.04,-0.47,-0.43,-0.77
0.0,232.38,-4.31,89.69,232.38,-4.31,89.69,0.31,-0.36,-0.61,0.64,3.0,173.94,49.13,-74.62,173.94,49.13,-74.62,0.04,-0.47,-0.44,-0.76
3.0,225.75,-6.19,87.5,225.75,-6.19,87.5,0.28,-0.34,-0.6,0.67,3.0,172.88,49.0,-76.75,172.88,49.0,-76.75,0.05,-0.47,-0.46,-0.75
3.0,220.0,-6.56,84.31,220.0,-6.56,84.31,0.25,-0.3,-0.6,0.7,3.0,172.13,48.63,-78.81,172.13,48.63,-78.81,0.05,-0.47,-0.47,-0.75
3.0,215.31,-7.69,82.0,215.31,-7.69,82.0,0.23,-0.28,-0.59,0.72,3.0,171.94,47.81,-81.25,171.94,47.81,-81.25,0.05,-0.47,-0.48,-0.74
3.0,212.69,-8.94,80.87,212.69,-8.94,80.87,0.21,-0.28,-0.58,0.73,3.0,172.31,46.19,-84.37,172.31,46.19,-84.37,0.05,-0.46,-0.5,-0.73
3.0,209.06,-10.25,78.31,209.06,-10.25,78.31,0.19,-0.26,-0.57,0.76,3.0,172.06,44.5,-87.37,172.06,44.5,-87.37,0.05,-0.45,-0.53,-0.72
3.0,205.44,-9.19,74.5,205.44,-9.19,74.5,0.17,-0.22,-0.56,0.78,3.0,170.94,43.63,-89.19,170.94,43.63,-89.19,0.06,-0.44,-0.55,-0.71
3.0,201.56,-8.69,71.81,201.56,-8.69,71.81,0.14,-0.19,-0.55,0.8,3.0,171.38,41.88,-91.37,171.38,41.88,-91.37,0.05,-0.44,-0.57,-0.7
3.0,198.44,-8.56,70.69,198.44,-8.56,70.69,0.12,-0.18,-0.55,0.81,3.0,172.19,40.06,-93.75,172.19,40.06,-93.75,0.05,-0.43,-0.58,-0.69
3.0,195.06,-8.69,69.56,195.06,-8.69,69.56,0.1,-0.16,-0.55,0.82,3.0,173.88,38.38,-94.69,173.88,38.38,-94.69,0.03,-0.42,-0.6,-0.68
3.0,193.19,-7.63,67.44,193.19,-7.63,67.44,0.09,-0.14,-0.53,0.83,3.0,175.5,36.38,-95.94,175.5,36.38,-95.94,0.02,-0.41,-0.61,-0.67
3.0,191.81,-6.25,65.5,191.81,-6.25,65.5,0.08,-0.11,-0.53,0.84,3.0,179.75,32.94,-96.44,179.75,32.94,-96.44,-0.01,-0.4,-0.62,-0.67
3.0,190.63,-5.0,65.31,190.63,-5.0,65.31,0.07,-0.11,-0.54,0.83,3.0,185.56,28.5,-96.62,185.56,28.5,-96.62,-0.04,-0.38,-0.64,-0.67
3.0,187.69,-7.81,68.44,187.69,-7.81,68.44,0.05,-0.13,-0.56,0.82,3.0,188.13,25.81,-96.37,188.13,25.81,-96.37,-0.04,-0.37,-0.64,-0.67
3.0,186.69,-10.25,71.12,186.69,-10.25,71.12,0.05,-0.15,-0.57,0.8,3.0,183.13,27.69,-92.81,183.13,27.69,-92.81,-0.01,-0.35,-0.62,-0.7
3.0,189.25,-10.69,75.19,189.25,-10.69,75.19,0.07,-0.17,-0.6,0.78,3.0,178.88,29.19,-88.12,178.88,29.19,-88.12,0.01,-0.33,-0.61,-0.72
3.0,190.63,-10.81,80.37,190.63,-10.81,80.37,0.07,-0.18,-0.63,0.75,3.0,177.88,29.31,-85.87,177.88,29.31,-85.87,0.01,-0.32,-0.6,-0.73
3.0,192.56,-7.19,83.44,192.56,-7.19,83.44,0.09,-0.14,-0.65,0.74,3.0,178.0,29.37,-84.44,178.0,29.37,-84.44,0.01,-0.32,-0.59,-0.74
3.0,196.0,-1.25,85.0,196.0,-1.25,85.0,0.11,-0.1,-0.68,0.72,3.0,178.06,29.69,-83.12,178.06,29.69,-83.12,0.02,-0.32,-0.58,-0.74
3.0,196.63,-0.63,89.75,196.63,-0.63,89.75,0.11,-0.11,-0.71,0.69,3.0,176.06,31.25,-81.56,176.06,31.25,-81.56,0.03,-0.33,-0.57,-0.75
3.0,198.81,-0.12,94.06,198.81,-0.12,94.06,0.11,-0.13,-0.73,0.67,3.0,175.06,32.56,-80.44,175.06,32.56,-80.44,0.03,-0.33,-0.56,-0.76
3.0,200.63,0.31,95.44,200.63,0.31,95.44,0.12,-0.13,-0.73,0.66,3.0,174.5,33.69,-79.0,174.5,33.69,-79.0,0.04,-0.34,-0.55,-0.76
3.0,202.63,1.37,94.12,202.63,1.37,94.12,0.14,-0.12,-0.72,0.67,3.0,173.69,35.5,-77.69,173.69,35.5,-77.69,0.04,-0.36,-0.54,-0.76
3.0,205.63,3.38,91.31,205.63,3.38,91.31,0.16,-0.12,-0.7,0.69,3.0,174.25,36.81,-77.62,174.25,36.81,-77.62,0.04,-0.37,-0.53,-0.76
3.0,208.06,4.44,88.94,208.06,4.44,88.94,0.18,-0.12,-0.69,0.69,3.0,174.69,38.0,-77.56,174.69,38.0,-77.56,0.04,-0.38,-0.52,-0.76
3.0,209.19,4.31,87.44,209.19,4.31,87.44,0.19,-0.13,-0.68,0.7,3.0,174.56,39.5,-77.56,174.56,39.5,-77.56,0.04,-0.4,-0.51,-0.76
2.0,210.44,4.13,86.37,210.44,4.13,86.37,0.19,-0.14,-0.67,0.7,3.0,174.63,40.88,-78.0,174.63,40.88,-78.0,0.04,-0.41,-0.5,-0.76
2.0,211.56,3.5,85.87,211.56,3.5,85.87,0.2,-0.15,-0.66,0.7,3.0,174.5,42.06,-78.5,174.5,42.06,-78.5,0.04,-0.42,-0.5,-0.76
2.0,213.0,3.0,85.37,213.0,3.0,85.37,0.21,-0.16,-0.66,0.71,3.0,174.06,43.44,-79.06,174.06,43.44,-79.06,0.04,-0.44,-0.49,-0.75
2.0,214.81,3.0,84.31,214.81,3.0,84.31,0.22,-0.17,-0.65,0.71,3.0,174.0,44.88,-79.5,174.0,44.88,-79.5,0.04,-0.45,-0.49,-0.75
2.0,217.06,2.75,83.5,217.06,2.75,83.5,0.24,-0.18,-0.64,0.71,3.0,176.44,44.69,-80.0,176.44,44.69,-80.0,0.02,-0.45,-0.48,-0.75
2.0,218.19,1.56,83.0,218.19,1.56,83.0,0.24,-0.2,-0.63,0.71,3.0,176.63,45.25,-78.87,176.63,45.25,-78.87,0.02,-0.46,-0.47,-0.76
2.0,218.0,0.56,82.12,218.0,0.56,82.12,0.25,-0.21,-0.62,0.71,3.0,176.56,46.19,-78.0,176.56,46.19,-78.0,0.02,-0.47,-0.46,-0.75
2.0,217.81,-0.63,82.06,217.81,-0.63,82.06,0.24,-0.22,-0.62,0.71,3.0,178.38,46.38,-80.12,178.38,46.38,-80.12,0.0,-0.48,-0.46,-0.74
2.0,217.69,-2.0,82.25,217.69,-2.0,82.25,0.24,-0.24,-0.61,0.71,3.0,181.44,45.88,-83.5,181.44,45.88,-83.5,-0.02,-0.5,-0.46,-0.73
2.0,218.69,-2.81,81.0,218.69,-2.81,81.0,0.26,-0.25,-0.6,0.72,3.0,184.44,45.25,-85.5,184.44,45.25,-85.5,-0.03,-0.51,-0.46,-0.72
2.0,220.13,-2.69,79.5,220.13,-2.69,79.5,0.26,-0.25,-0.59,0.72,3.0,185.63,45.5,-87.19,185.63,45.5,-87.19,-0.04,-0.52,-0.46,-0.72
2.0,220.38,-3.81,80.06,220.38,-3.81,80.06,0.26,-0.27,-0.59,0.72,3.0,188.31,45.25,-86.81,188.31,45.25,-86.81,-0.06,-0.53,-0.44,-0.72
2.0,220.13,-5.88,81.0,220.13,-5.88,81.0,0.26,-0.29,-0.58,0.71,3.0,189.31,46.19,-82.25,189.31,46.19,-82.25,-0.06,-0.52,-0.42,-0.74
2.0,221.13,-6.13,80.81,221.13,-6.13,80.81,0.27,-0.3,-0.58,0.71,3.0,191.19,45.81,-80.06,191.19,45.81,-80.06,-0.08,-0.52,-0.41,-0.74
2.0,222.31,-6.25,81.25,222.31,-6.25,81.25,0.28,-0.31,-0.58,0.7,3.0,195.44,44.19,-80.0,195.44,44.19,-80.0,-0.11,-0.52,-0.4,-0.74
2.0,223.13,-6.94,82.87,223.13,-6.94,82.87,0.28,-0.32,-0.58,0.69,3.0,197.56,43.81,-77.31,197.56,43.81,-77.31,-0.12,-0.52,-0.38,-0.76
2.0,223.94,-7.31,84.69,223.94,-7.31,84.69,0.28,-0.33,-0.59,0.68,3.0,198.44,43.31,-74.06,198.44,43.31,-74.06,-0.12,-0.51,-0.37,-0.77
2.0,224.69,-6.94,86.12,224.69,-6.94,86.12,0.28,-0.34,-0.6,0.67,3.0,197.75,43.19,-71.25,197.75,43.19,-71.25,-0.12,-0.49,-0.36,-0.78
2.0,225.19,-7.06,87.81,225.19,-7.06,87.81,0.28,-0.35,-0.6,0.66,3.0,197.75,42.5,-68.0,197.75,42.5,-68.0,-0.12,-0.48,-0.35,-0.79
3.0,225.06,-8.06,89.94,225.06,-8.06,89.94,0.27,-0.36,-0.61,0.65,3.0,198.13,41.44,-64.94,198.13,41.44,-64.94,-0.13,-0.46,-0.35,-0.81
3.0,223.81,-8.88,91.75,223.81,-8.88,91.75,0.25,-0.37,-0.62,0.64,3.0,197.94,40.31,-62.69,197.94,40.31,-62.69,-0.13,-0.45,-0.35,-0.81
3.0,221.94,-9.81,93.75,221.94,-9.81,93.75,0.24,-0.38,-0.63,0.64,3.0,197.69,39.13,-61.38,197.69,39.13,-61.38,-0.13,-0.44,-0.35,-0.82
3.0,221.0,-10.56,96.06,221.0,-10.56,96.06,0.23,-0.39,-0.64,0.62,3.0,198.0,37.69,-60.38,198.0,37.69,-60.38,-0.13,-0.43,-0.35,-0.82
3.0,220.38,-11.69,99.31,220.38,-11.69,99.31,0.22,-0.41,-0.65,0.6,3.0,197.38,36.63,-59.56,197.38,36.63,-59.56,-0.13,-0.41,-0.35,-0.83
3.0,219.5,-12.94,102.94,219.5,-12.94,102.94,0.21,-0.43,-0.66,0.58,3.0,196.25,35.69,-59.75,196.25,35.69,-59.75,-0.12,-0.4,-0.37,-0.83
3.0,217.69,-14.25,105.5,217.69,-14.25,105.5,0.19,-0.44,-0.66,0.58,3.0,194.63,34.94,-60.81,194.63,34.94,-60.81,-0.11,-0.39,-0.38,-0.83
3.0,215.25,-15.69,105.94,215.25,-15.69,105.94,0.18,-0.44,-0.66,0.58,3.0,192.88,34.63,-62.06,192.88,34.63,-62.06,-0.09,-0.39,-0.4,-0.82
3.0,212.13,-17.19,105.44,212.13,-17.19,105.44,0.16,-0.44,-0.66,0.59,3.0,192.31,34.25,-64.06,192.31,34.25,-64.06,-0.09,-0.39,-0.41,-0.82
3.0,207.75,-19.19,105.94,207.75,-19.19,105.94,0.14,-0.44,-0.66,0.59,3.0,192.06,33.63,-66.37,192.06,33.63,-66.37,-0.08,-0.39,-0.44,-0.81
3.0,202.31,-21.75,107.19,202.31,-21.75,107.19,0.11,-0.45,-0.66,0.59,3.0,190.25,33.31,-69.0,190.25,33.31,-69.0,-0.07,-0.38,-0.46,-0.8
3.0,196.81,-24.31,107.81,196.81,-24.31,107.81,0.08,-0.44,-0.66,0.6,3.0,187.5,33.31,-71.44,187.5,33.31,-71.44,-0.05,-0.38,-0.47,-0.79
3.0,191.63,-26.87,107.56,191.63,-26.87,107.56,0.05,-0.44,-0.66,0.6,3.0,186.13,32.94,-74.0,186.13,32.94,-74.0,-0.04,-0.37,-0.49,-0.78
3.0,186.5,-29.81,106.69,186.5,-29.81,106.69,0.02,-0.44,-0.65,0.62,3.0,185.31,32.19,-76.31,185.31,32.19,-76.31,-0.04,-0.37,-0.51,-0.77
3.0,180.63,-32.69,104.25,180.63,-32.69,104.25,-0.01,-0.42,-0.64,0.64,3.0,183.13,31.94,-78.94,183.13,31.94,-78.94,-0.02,-0.36,-0.54,-0.76
3.0,175.81,-34.13,100.44,175.81,-34.13,100.44,-0.03,-0.4,-0.64,0.66,3.0,181.56,31.87,-81.81,181.56,31.87,-81.81,-0.01,-0.36,-0.56,-0.74
3.0,172.31,-35.31,98.37,172.31,-35.31,98.37,-0.05,-0.39,-0.63,0.66,3.0,182.38,30.62,-84.62,182.38,30.62,-84.62,-0.02,-0.36,-0.58,-0.73
3.0,169.69,-36.88,98.69,169.69,-36.88,98.69,-0.06,-0.4,-0.63,0.66,3.0,181.81,29.87,-86.94,181.81,29.87,-86.94,-0.01,-0.35,-0.59,-0.72
3.0,166.88,-38.13,98.19,166.88,-38.13,98.19,-0.08,-0.39,-0.63,0.66,3.0,180.31,29.5,-88.56,180.31,29.5,-88.56,-0.0,-0.35,-0.61,-0.71
3.0,163.75,-38.38,96.0,163.75,-38.38,96.0,-0.1,-0.37,-0.63,0.67,3.0,179.56,28.62,-90.31,179.56,28.62,-90.31,0.0,-0.34,-0.62,-0.71
3.0,160.44,-38.44,93.87,160.44,-38.44,93.87,-0.12,-0.34,-0.64,0.68,3.0,179.31,27.37,-91.62,179.31,27.37,-91.62,0.0,-0.33,-0.64,-0.7
3.0,158.75,-38.06,91.94,158.75,-38.06,91.94,-0.13,-0.32,-0.64,0.69,3.0,179.5,26.31,-92.75,179.5,26.31,-92.75,0.0,-0.32,-0.65,-0.69
3.0,159.31,-36.38,90.12,159.31,-36.38,90.12,-0.13,-0.3,-0.64,0.7,3.0,179.94,25.06,-93.44,179.94,25.06,-93.44,0.0,-0.31,-0.66,-0.69
3.0,159.19,-34.31,90.44,159.19,-34.31,90.44,-0.13,-0.28,-0.66,0.69,3.0,179.25,24.69,-93.19,179.25,24.69,-93.19,0.0,-0.3,-0.66,-0.69
3.0,157.69,-32.44,92.69,157.69,-32.44,92.69,-0.13,-0.25,-0.68,0.68,3.0,178.44,24.62,-92.25,178.44,24.62,-92.25,0.01,-0.29,-0.66,-0.69
3.0,157.63,-30.31,94.62,157.63,-30.31,94.62,-0.13,-0.24,-0.7,0.67,3.0,177.94,24.56,-90.56,177.94,24.56,-90.56,0.01,-0.28,-0.65,-0.7
3.0,160.38,-27.31,95.44,160.38,-27.31,95.44,-0.11,-0.22,-0.7,0.67,3.0,177.5,24.37,-88.81,177.5,24.37,-88.81,0.02,-0.28,-0.64,-0.71
3.0,164.63,-23.06,95.69,164.63,-23.06,95.69,-0.08,-0.19,-0.72,0.66,3.0,177.0,24.5,-86.87,177.0,24.5,-86.87,0.02,-0.27,-0.63,-0.72
3.0,165.44,-21.19,100.56,165.44,-21.19,100.56,-0.08,-0.19,-0.75,0.63,3.0,176.88,24.5,-84.56,176.88,24.5,-84.56,0.02,-0.27,-0.62,-0.74
3.0,165.75,-19.75,105.94,165.75,-19.75,105.94,-0.07,-0.18,-0.78,0.6,3.0,176.31,24.94,-82.0,176.31,24.94,-82.0,0.02,-0.26,-0.61,-0.75
3.0,168.81,-17.87,107.25,168.81,-17.87,107.25,-0.05,-0.18,-0.78,0.6,3.0,176.38,25.0,-79.31,176.38,25.0,-79.31,0.02,-0.26,-0.59,-0.76
3.0,173.81,-16.19,105.69,173.81,-16.19,105.69,-0.02,-0.19,-0.77,0.61,3.0,175.31,26.44,-77.06,175.31,26.44,-77.06,0.03,-0.27,-0.57,-0.77
3.0,176.81,-16.37,105.06,176.81,-16.37,105.06,-0.01,-0.22,-0.76,0.61,3.0,174.75,28.25,-75.0,174.75,28.25,-75.0,0.04,-0.28,-0.56,-0.78
3.0,180.5,-16.0,104.62,180.5,-16.0,104.62,0.01,-0.24,-0.75,0.62,3.0,173.88,30.75,-73.12,173.88,30.75,-73.12,0.04,-0.3,-0.54,-0.79
3.0,183.94,-16.37,104.5,183.94,-16.37,104.5,0.03,-0.26,-0.74,0.62,3.0,172.38,34.13,-71.69,172.38,34.13,-71.69,0.05,-0.32,-0.52,-0.79
3.0,187.56,-16.56,104.37,187.56,-16.56,104.37,0.05,-0.29,-0.73,0.62,3.0,171.25,38.38,-70.62,171.25,38.38,-70.62,0.06,-0.36,-0.49,-0.79
3.0,190.19,-16.56,103.06,190.19,-16.56,103.06,0.06,-0.3,-0.72,0.63,3.0,171.06,41.75,-70.5,171.06,41.75,-70.5,0.06,-0.4,-0.47,-0.79
3.0,193.31,-16.06,100.25,193.31,-16.06,100.25,0.08,-0.3,-0.7,0.64,3.0,172.06,47.75,-71.37,172.06,47.75,-71.37,0.05,-0.45,-0.44,-0.78
3.0,195.44,-16.37,97.75,195.44,-16.37,97.75,0.09,-0.31,-0.68,0.66,3.0,172.56,51.88,-73.37,172.56,51.88,-73.37,0.05,-0.49,-0.42,-0.77
3.0,196.81,-17.44,95.62,196.81,-17.44,95.62,0.1,-0.33,-0.66,0.67,3.0,173.0,53.94,-76.12,173.0,53.94,-76.12,0.05,-0.52,-0.41,-0.75
3.0,198.19,-18.31,93.19,198.19,-18.31,93.19,0.11,-0.34,-0.64,0.68,3.0,171.94,57.88,-79.5,171.94,57.88,-79.5,0.05,-0.55,-0.39,-0.74
3.0,199.13,-19.19,91.75,199.13,-19.19,91.75,0.12,-0.35,-0.62,0.69,3.0,171.06,59.38,-80.75,171.06,59.38,-80.75,0.06,-0.56,-0.38,-0.73
3.0,199.13,-20.62,91.19,199.13,-20.62,91.19,0.12,-0.36,-0.61,0.69,3.0,168.88,61.44,-82.81,168.88,61.44,-82.81,0.08,-0.57,-0.38,-0.72
3.0,199.75,-21.56,89.19,199.75,-21.56,89.19,0.13,-0.37,-0.59,0.71,3.0,166.56,63.31,-83.12,166.56,63.31,-83.12,0.09,-0.58,-0.37,-0.72
3.0,201.19,-21.12,85.87,201.19,-21.12,85.87,0.14,-0.36,-0.58,0.72,2.0,166.69,64.0,-84.25,166.69,64.0,-84.25,0.08,-0.59,-0.37,-0.72
3.0,201.63,-21.12,83.69,201.63,-21.12,83.69,0.14,-0.36,-0.57,0.73,2.0,168.69,63.56,-87.31,168.69,63.56,-87.31,0.07,-0.6,-0.37,-0.71
3.0,201.19,-21.81,83.31,201.19,-21.81,83.31,0.14,-0.36,-0.56,0.73,2.0,170.06,63.25,-88.75,170.06,63.25,-88.75,0.06,-0.6,-0.37,-0.71
3.0,201.06,-22.44,82.94,201.06,-22.44,82.94,0.14,-0.36,-0.56,0.73,2.0,169.75,63.75,-89.06,169.75,63.75,-89.06,0.07,-0.6,-0.37,-0.71
3.0,201.25,-22.56,82.37,201.25,-22.56,82.37,0.14,-0.36,-0.55,0.74,2.0,168.25,64.62,-89.12,168.25,64.62,-89.12,0.07,-0.6,-0.36,-0.71
3.0,202.13,-22.19,82.12,202.13,-22.19,82.12,0.15,-0.36,-0.55,0.74,2.0,167.69,64.87,-88.06,167.69,64.87,-88.06,0.08,-0.6,-0.36,-0.71
3.0,202.63,-22.0,82.81,202.63,-22.0,82.81,0.15,-0.37,-0.56,0.73,2.0,168.44,64.12,-87.12,168.44,64.12,-87.12,0.07,-0.59,-0.37,-0.71
3.0,202.5,-22.56,84.0,202.5,-22.56,84.0,0.14,-0.38,-0.56,0.73,2.0,169.5,62.69,-85.56,169.5,62.69,-85.56,0.07,-0.58,-0.37,-0.72
3.0,201.81,-22.75,84.0,201.81,-22.75,84.0,0.14,-0.37,-0.56,0.73,2.0,168.44,62.0,-81.62,168.44,62.0,-81.62,0.08,-0.56,-0.38,-0.73
3.0,202.31,-21.5,83.19,202.31,-21.5,83.19,0.14,-0.36,-0.56,0.73,2.0,166.5,61.19,-78.87,166.5,61.19,-78.87,0.09,-0.55,-0.39,-0.73
3.0,201.81,-21.19,82.69,201.81,-21.19,82.69,0.14,-0.35,-0.56,0.74,2.0,164.13,59.88,-80.69,164.13,59.88,-80.69,0.11,-0.53,-0.42,-0.73
3.0,199.88,-20.75,82.56,199.88,-20.75,82.56,0.13,-0.33,-0.57,0.74,2.0,162.81,57.75,-82.06,162.81,57.75,-82.06,0.11,-0.51,-0.45,-0.73
3.0,197.88,-19.37,82.56,197.88,-19.37,82.56,0.11,-0.31,-0.59,0.74,2.0,162.81,55.81,-80.87,162.81,55.81,-80.87,0.11,-0.49,-0.46,-0.73
3.0,195.81,-18.94,83.25,195.81,-18.94,83.25,0.1,-0.3,-0.6,0.74,2.0,164.63,52.88,-80.19,164.63,52.88,-80.19,0.1,-0.47,-0.47,-0.74
3.0,194.94,-19.5,84.12,194.94,-19.5,84.12,0.1,-0.31,-0.6,0.73,2.0,166.13,49.69,-81.0,166.13,49.69,-81.0,0.09,-0.45,-0.5,-0.74
3.0,194.94,-20.56,85.12,194.94,-20.56,85.12,0.09,-0.32,-0.6,0.72,2.0,165.38,47.13,-79.56,165.38,47.13,-79.56,0.11,-0.42,-0.51,-0.74
3.0,193.81,-22.0,87.12,193.81,-22.0,87.12,0.08,-0.34,-0.61,0.71,2.0,159.19,48.31,-78.56,159.19,48.31,-78.56,0.15,-0.41,-0.52,-0.73
3.0,191.44,-23.12,88.87,191.44,-23.12,88.87,0.06,-0.34,-0.62,0.71,2.0,156.75,48.31,-81.62,156.75,48.31,-81.62,0.15,-0.41,-0.54,-0.72
3.0,187.75,-25.19,89.94,187.75,-25.19,89.94,0.04,-0.34,-0.62,0.71,2.0,158.81,46.69,-84.19,158.81,46.69,-84.19,0.13,-0.4,-0.55,-0.72
3.0,185.75,-25.75,89.25,185.75,-25.75,89.25,0.03,-0.34,-0.62,0.71,2.0,161.94,44.19,-85.81,161.94,44.19,-85.81,0.11,-0.39,-0.56,-0.72
3.0,184.25,-26.37,88.69,184.25,-26.37,88.69,0.03,-0.33,-0.62,0.71,2.0,163.63,42.19,-86.44,163.63,42.19,-86.44,0.1,-0.38,-0.58,-0.71
3.0,183.13,-26.5,89.12,183.13,-26.5,89.12,0.01,-0.33,-0.62,0.71,2.0,165.69,40.19,-87.44,165.69,40.19,-87.44,0.08,-0.38,-0.58,-0.71
3.0,180.38,-27.75,90.44,180.38,-27.75,90.44,-0.0,-0.33,-0.63,0.7,2.0,169.13,38.06,-88.31,169.13,38.06,-88.31,0.06,-0.38,-0.59,-0.71
3.0,178.25,-28.31,90.87,178.25,-28.31,90.87,-0.01,-0.32,-0.63,0.7,2.0,171.81,36.56,-89.5,171.81,36.56,-89.5,0.05,-0.38,-0.6,-0.71
3.0,178.25,-26.62,90.0,178.25,-26.62,90.0,-0.01,-0.3,-0.64,0.71,2.0,173.75,35.25,-90.37,173.75,35.25,-90.37,0.04,-0.38,-0.6,-0.7
3.0,177.0,-25.12,90.44,177.0,-25.12,90.44,-0.02,-0.28,-0.66,0.7,2.0,174.44,34.38,-90.12,174.44,34.38,-90.12,0.04,-0.37,-0.6,-0.71
3.0,173.81,-25.62,92.31,173.81,-25.62,92.31,-0.04,-0.27,-0.67,0.69,2.0,173.19,34.69,-89.81,173.19,34.69,-89.81,0.04,-0.37,-0.6,-0.71
3.0,172.0,-25.87,93.25,172.0,-25.87,93.25,-0.05,-0.27,-0.67,0.69,2.0,172.69,34.81,-89.87,172.69,34.81,-89.87,0.05,-0.36,-0.6,-0.71
3.0,172.0,-25.62,92.94,172.0,-25.62,92.94,-0.05,-0.27,-0.67,0.69,2.0,172.81,34.19,-88.94,172.81,34.19,-88.94,0.04,-0.36,-0.6,-0.71
3.0,171.44,-25.87,92.87,171.44,-25.87,92.87,-0.05,-0.27,-0.67,0.69,2.0,173.88,33.25,-87.94,173.88,33.25,-87.94,0.04,-0.35,-0.6,-0.72
3.0,170.38,-26.5,93.25,170.38,-26.5,93.25,-0.06,-0.27,-0.67,0.69,2.0,174.25,32.56,-87.56,174.25,32.56,-87.56,0.04,-0.34,-0.6,-0.72
3.0,170.06,-26.81,93.44,170.06,-26.81,93.44,-0.06,-0.27,-0.67,0.68,2.0,173.75,32.31,-87.75,173.75,32.31,-87.75,0.04,-0.34,-0.61,-0.72
3.0,169.56,-27.44,93.87,169.56,-27.44,93.87,-0.06,-0.28,-0.67,0.68,2.0,173.38,32.31,-87.94,173.38,32.31,-87.94,0.04,-0.34,-0.61,-0.72
3.0,168.75,-28.0,93.37,168.75,-28.0,93.37,-0.07,-0.28,-0.67,0.69,2.0,172.69,32.44,-88.19,172.69,32.44,-88.19,0.05,-0.34,-0.61,-0.71
3.0,169.0,-28.19,92.94,169.0,-28.19,92.94,-0.07,-0.28,-0.67,0.69,2.0,171.63,32.5,-88.69,171.63,32.5,-88.69,0.05,-0.33,-0.62,-0.71
3.0,169.56,-28.19,92.12,169.56,-28.19,92.12,-0.06,-0.28,-0.66,0.7,2.0,170.88,32.63,-89.25,170.88,32.63,-89.25,0.06,-0.33,-0.62,-0.71
3.0,170.5,-27.87,88.37,170.5,-27.87,88.37,-0.06,-0.27,-0.63,0.72,2.0,170.38,32.63,-89.87,170.38,32.63,-89.87,0.06,-0.33,-0.63,-0.7
3.0,172.0,-27.0,84.69,172.0,-27.0,84.69,-0.05,-0.27,-0.62,0.74,2.0,170.19,32.63,-90.44,170.19,32.63,-90.44,0.06,-0.33,-0.63,-0.7
3.0,171.56,-27.37,83.31,171.56,-27.37,83.31,-0.05,-0.26,-0.62,0.74,2.0,169.19,32.88,-91.06,169.19,32.88,-91.06,0.07,-0.33,-0.63,-0.7
3.0,172.31,-25.87,83.31,172.31,-25.87,83.31,-0.05,-0.26,-0.62,0.74,2.0,168.0,33.0,-91.75,168.0,33.0,-91.75,0.07,-0.33,-0.64,-0.69
3.0,172.38,-27.19,84.62,172.38,-27.19,84.62,-0.04,-0.28,-0.62,0.74,2.0,165.5,33.31,-92.5,165.5,33.31,-92.5,0.09,-0.32,-0.65,-0.69
3.0,175.75,-27.56,82.44,175.75,-27.56,82.44,-0.02,-0.29,-0.59,0.75,2.0,162.81,34.0,-92.37,162.81,34.0,-92.37,0.1,-0.31,-0.65,-0.69
3.0,180.25,-26.25,78.19,180.25,-26.25,78.19,0.01,-0.29,-0.56,0.77,2.0,161.81,34.13,-92.56,161.81,34.13,-92.56,0.11,-0.31,-0.65,-0.69
3.0,182.69,-24.62,76.12,182.69,-24.62,76.12,0.02,-0.28,-0.56,0.78,2.0,161.69,34.38,-93.81,161.69,34.38,-93.81,0.11,-0.31,-0.66,-0.68
3.0,182.38,-23.81,77.44,182.38,-23.81,77.44,0.02,-0.27,-0.58,0.77,2.0,162.25,34.69,-94.75,162.25,34.69,-94.75,0.11,-0.32,-0.66,-0.67
3.0,183.81,-22.31,78.44,183.81,-22.31,78.44,0.03,-0.27,-0.58,0.77,2.0,162.75,35.25,-95.62,162.75,35.25,-95.62,0.1,-0.33,-0.66,-0.67
3.0,186.38,-21.75,77.87,186.38,-21.75,77.87,0.05,-0.27,-0.57,0.77,2.0,162.13,36.31,-96.31,162.13,36.31,-96.31,0.1,-0.34,-0.65,-0.67
3.0,189.31,-20.87,76.56,189.31,-20.87,76.56,0.07,-0.28,-0.56,0.78,2.0,159.0,39.44,-96.19,159.0,39.44,-96.19,0.12,-0.36,-0.64,-0.67
3.0,191.63,-20.31,76.19,191.63,-20.31,76.19,0.08,-0.28,-0.56,0.78,2.0,159.81,40.75,-97.25,159.81,40.75,-97.25,0.12,-0.38,-0.63,-0.66
3.0,192.44,-20.25,77.56,192.44,-20.25,77.56,0.08,-0.29,-0.57,0.77,2.0,158.38,42.06,-97.69,158.38,42.06,-97.69,0.13,-0.39,-0.63,-0.66
3.0,192.31,-20.12,79.12,192.31,-20.12,79.12,0.08,-0.29,-0.58,0.76,2.0,158.31,42.75,-98.31,158.31,42.75,-98.31,0.13,-0.4,-0.63,-0.66
3.0,192.13,-19.44,79.75,192.13,-19.44,79.75,0.08,-0.28,-0.58,0.76,2.0,160.06,42.25,-101.06,160.06,42.25,-101.06,0.11,-0.41,-0.63,-0.64
3.0,191.69,-18.94,81.06,191.69,-18.94,81.06,0.08,-0.28,-0.6,0.75,2.0,161.31,41.81,-102.56,161.31,41.81,-102.56,0.1,-0.42,-0.64,-0.64
3.0,191.13,-18.31,84.75,191.13,-18.31,84.75,0.07,-0.28,-0.63,0.72,2.0,162.31,40.88,-103.87,162.31,40.88,-103.87,0.1,-0.42,-0.65,-0.63
3.0,189.31,-18.44,89.81,189.31,-18.44,89.81,0.05,-0.28,-0.66,0.7,2.0,161.69,40.69,-104.12,161.69,40.69,-104.12,0.1,-0.41,-0.65,-0.63
3.0,188.94,-17.37,93.69,188.94,-17.37,93.69,0.05,-0.26,-0.69,0.68,2.0,161.38,39.75,-105.12,161.38,39.75,-105.12,0.1,-0.41,-0.66,-0.62
3.0,184.13,-17.31,98.69,184.13,-17.31,98.69,0.01,-0.25,-0.73,0.64,2.0,161.69,39.0,-104.87,161.69,39.0,-104.87,0.1,-0.4,-0.66,-0.62
3.0,173.88,-21.06,105.25,173.88,-21.06,105.25,-0.06,-0.26,-0.75,0.6,2.0,160.94,39.0,-104.44,160.94,39.0,-104.44,0.11,-0.39,-0.67,-0.63
3.0,162.06,-27.5,107.25,162.06,-27.5,107.25,-0.11,-0.27,-0.74,0.61,2.0,161.38,37.75,-105.19,161.38,37.75,-105.19,0.1,-0.38,-0.68,-0.62
3.0,155.94,-31.44,103.12,155.94,-31.44,103.12,-0.14,-0.26,-0.72,0.63,2.0,161.0,37.19,-105.62,161.0,37.19,-105.62,0.1,-0.38,-0.68,-0.62
3.0,149.13,-33.44,99.87,149.13,-33.44,99.87,-0.19,-0.23,-0.72,0.63,2.0,162.06,36.0,-106.56,162.06,36.0,-106.56,0.1,-0.37,-0.69,-0.61
3.0,137.44,-36.75,101.12,137.44,-36.75,101.12,-0.26,-0.2,-0.74,0.58,2.0,163.88,34.75,-107.5,163.88,34.75,-107.5,0.09,-0.37,-0.7,-0.61
3.0,115.56,-44.63,110.75,115.56,-44.63,110.75,-0.36,-0.19,-0.78,0.48,3.0,165.19,34.06,-107.44,165.19,34.06,-107.44,0.08,-0.37,-0.7,-0.61
3.0,93.31,-51.06,114.87,93.31,-51.06,114.87,-0.45,-0.11,-0.77,0.44,3.0,167.0,32.88,-107.62,167.0,32.88,-107.62,0.07,-0.37,-0.7,-0.61
3.0,86.75,-50.0,95.94,86.75,-50.0,95.94,-0.51,-0.02,-0.7,0.5,3.0,167.75,32.13,-107.75,167.75,32.13,-107.75,0.06,-0.36,-0.7,-0.61
3.0,88.81,-42.06,77.0,88.81,-42.06,77.0,-0.56,0.05,-0.63,0.54,3.0,167.69,32.06,-107.44,167.69,32.06,-107.44,0.07,-0.36,-0.7,-0.61
3.0,81.56,-40.44,72.19,81.56,-40.44,72.19,-0.6,0.09,-0.61,0.5,3.0,165.38,34.19,-105.5,165.38,34.19,-105.5,0.08,-0.37,-0.69,-0.62
3.0,75.37,-42.63,71.62,75.37,-42.63,71.62,-0.63,0.07,-0.61,0.48,3.0,165.94,34.38,-106.0,165.94,34.38,-106.0,0.07,-0.38,-0.69,-0.61
3.0,75.12,-47.88,66.5,75.12,-47.88,66.5,-0.63,-0.0,-0.6,0.5,3.0,167.38,33.94,-107.0,167.38,33.94,-107.0,0.07,-0.38,-0.69,-0.61
3.0,79.06,-49.13,60.63,79.06,-49.13,60.63,-0.63,-0.02,-0.58,0.52,3.0,167.63,33.69,-106.87,167.63,33.69,-106.87,0.07,-0.38,-0.69,-0.61
3.0,73.81,-45.94,59.69,73.81,-45.94,59.69,-0.67,0.06,-0.57,0.47,3.0,167.88,33.56,-105.62,167.88,33.56,-105.62,0.07,-0.37,-0.69,-0.62
3.0,62.13,-42.94,62.19,62.13,-42.94,62.19,-0.71,0.15,-0.55,0.41,3.0,167.38,33.38,-104.19,167.38,33.38,-104.19,0.07,-0.36,-0.69,-0.63
3.0,60.06,-38.75,60.69,60.06,-38.75,60.69,-0.72,0.16,-0.52,0.43,3.0,168.75,32.38,-103.31,168.75,32.38,-103.31,0.06,-0.36,-0.69,-0.63
3.0,64.44,-36.63,54.63,64.44,-36.63,54.63,-0.72,0.12,-0.49,0.47,3.0,172.0,30.56,-103.19,172.0,30.56,-103.19,0.04,-0.35,-0.69,-0.63
3.0,68.75,-35.44,50.5,68.75,-35.44,50.5,-0.72,0.11,-0.48,0.49,3.0,173.94,29.25,-102.44,173.94,29.25,-102.44,0.03,-0.35,-0.69,-0.64
3.0,67.0,-35.88,51.0,67.0,-35.88,51.0,-0.72,0.12,-0.48,0.48,3.0,175.31,28.06,-102.31,175.31,28.06,-102.31,0.02,-0.34,-0.69,-0.64
3.0,68.12,-34.88,52.63,68.12,-34.88,52.63,-0.73,0.09,-0.49,0.47,3.0,175.13,27.69,-102.0,175.13,27.69,-102.0,0.03,-0.33,-0.69,-0.64
3.0,66.19,-41.38,36.0,66.19,-41.38,36.0,-0.75,-0.03,-0.4,0.53,3.0,173.94,28.12,-101.62,173.94,28.12,-101.62,0.03,-0.33,-0.69,-0.64
3.0,76.69,-38.75,14.5,76.69,-38.75,14.5,-0.73,-0.17,-0.29,0.59,3.0,174.31,28.25,-100.62,174.31,28.25,-100.62,0.03,-0.33,-0.68,-0.65
2.0,81.75,-37.94,-1.75,81.75,-37.94,-1.75,-0.71,-0.23,-0.22,0.63,3.0,175.25,28.0,-99.81,175.25,28.0,-99.81,0.02,-0.33,-0.68,-0.65
2.0,82.81,-35.0,-4.5,82.81,-35.0,-4.5,-0.73,-0.2,-0.21,0.62,3.0,176.19,27.37,-99.44,176.19,27.37,-99.44,0.02,-0.33,-0.68,-0.65
2.0,72.5,-30.69,4.13,72.5,-30.69,4.13,-0.8,-0.09,-0.24,0.55,3.0,175.19,27.56,-99.12,175.19,27.56,-99.12,0.03,-0.33,-0.68,-0.65
2.0,66.19,-23.69,13.69,66.19,-23.69,13.69,-0.81,0.01,-0.21,0.55,3.0,175.69,27.06,-99.31,175.69,27.06,-99.31,0.02,-0.32,-0.68,-0.65
2.0,75.81,-11.0,13.69,75.81,-11.0,13.69,-0.77,0.04,-0.13,0.63,3.0,176.56,26.56,-99.0,176.56,26.56,-99.0,0.01,-0.32,-0.68,-0.66
1.0,78.56,-8.63,13.06,78.56,-8.63,13.06,-0.77,0.04,-0.14,0.62,3.0,179.31,25.25,-98.5,179.31,25.25,-98.5,0.0,-0.32,-0.68,-0.66
1.0,78.0,-11.31,19.0,78.0,-11.31,19.0,-0.76,0.07,-0.2,0.61,3.0,178.81,25.0,-97.62,178.81,25.0,-97.62,0.01,-0.31,-0.68,-0.67
1.0,78.06,-12.94,23.94,78.06,-12.94,23.94,-0.75,0.09,-0.22,0.62,3.0,177.25,25.06,-96.62,177.25,25.06,-96.62,0.02,-0.3,-0.68,-0.67
1.0,78.87,-13.56,24.75,78.87,-13.56,24.75,-0.75,0.08,-0.22,0.62,3.0,177.31,24.62,-95.94,177.31,24.62,-95.94,0.01,-0.29,-0.68,-0.67
1.0,80.69,-11.81,22.37,80.69,-11.81,22.37,-0.74,0.08,-0.19,0.64,3.0,177.75,24.06,-95.25,177.75,24.06,-95.25,0.01,-0.29,-0.68,-0.68
1.0,83.75,-6.88,20.5,83.75,-6.88,20.5,-0.73,0.1,-0.16,0.66,3.0,177.75,24.0,-95.06,177.75,24.0,-95.06,0.01,-0.29,-0.68,-0.68
1.0,85.31,-2.5,21.37,85.31,-2.5,21.37,-0.72,0.13,-0.14,0.67,3.0,178.38,23.62,-95.37,178.38,23.62,-95.37,0.01,-0.29,-0.68,-0.68
1.0,87.87,0.06,23.06,87.87,0.06,23.06,-0.7,0.15,-0.14,0.69,3.0,178.69,23.44,-95.44,178.69,23.44,-95.44,0.01,-0.29,-0.68,-0.68
1.0,90.0,-1.56,25.44,90.0,-1.56,25.44,-0.69,0.15,-0.17,0.69,3.0,179.31,23.12,-95.94,179.31,23.12,-95.94,0.0,-0.29,-0.68,-0.67
1.0,88.25,-5.63,27.81,88.25,-5.63,27.81,-0.69,0.13,-0.2,0.68,3.0,180.19,22.06,-96.0,180.19,22.06,-96.0,-0.0,-0.28,-0.69,-0.67
1.0,90.81,-4.25,25.81,90.81,-4.25,25.81,-0.68,0.13,-0.19,0.69,3.0,180.0,20.62,-95.31,180.0,20.62,-95.31,-0.0,-0.26,-0.69,-0.68
1.0,93.12,-1.5,24.44,93.12,-1.5,24.44,-0.67,0.14,-0.16,0.71,3.0,180.31,18.69,-94.31,180.31,18.69,-94.31,-0.0,-0.24,-0.69,-0.68
1.0,92.56,-1.5,25.62,92.56,-1.5,25.62,-0.67,0.14,-0.17,0.7,3.0,180.06,17.69,-93.94,180.06,17.69,-93.94,0.0,-0.22,-0.7,-0.68
1.0,92.25,-2.25,25.0,92.25,-2.25,25.0,-0.68,0.14,-0.17,0.7,3.0,179.0,17.25,-94.75,179.0,17.25,-94.75,0.0,-0.21,-0.71,-0.67
1.0,92.37,-2.81,22.37,92.37,-2.81,22.37,-0.68,0.12,-0.16,0.71,3.0,180.13,16.19,-99.81,180.13,16.19,-99.81,-0.0,-0.22,-0.74,-0.63
1.0,92.69,-2.81,21.06,92.69,-2.81,21.06,-0.68,0.11,-0.15,0.71,3.0,178.75,16.31,-106.12,178.75,16.31,-106.12,0.01,-0.23,-0.77,-0.59
1.0,92.87,-3.06,22.19,92.87,-3.06,22.19,-0.68,0.11,-0.17,0.71,3.0,175.38,17.56,-112.69,175.38,17.56,-112.69,0.02,-0.24,-0.8,-0.55
1.0,91.19,-6.69,26.5,91.19,-6.69,26.5,-0.68,0.12,-0.22,0.69,3.0,175.88,16.75,-118.12,175.88,16.75,-118.12,0.02,-0.25,-0.82,-0.51
1.0,89.5,-9.75,28.81,89.5,-9.75,28.81,-0.68,0.11,-0.24,0.68,3.0,175.31,16.37,-120.25,175.31,16.37,-120.25,0.02,-0.24,-0.83,-0.51
1.0,91.25,-9.69,29.37,91.25,-9.69,29.37,-0.67,0.11,-0.24,0.69,3.0,172.5,17.5,-119.69,172.5,17.5,-119.69,0.04,-0.24,-0.82,-0.51
1.0,92.56,-10.56,26.62,92.56,-10.56,26.62,-0.66,0.08,-0.23,0.71,3.0,171.75,17.69,-119.69,171.75,17.69,-119.69,0.04,-0.24,-0.82,-0.51
1.0,94.56,-11.31,25.69,94.56,-11.31,25.69,-0.66,0.07,-0.23,0.71,3.0,170.81,18.44,-118.37,170.81,18.44,-118.37,0.04,-0.24,-0.82,-0.53
1.0,96.19,-12.19,27.19,96.19,-12.19,27.19,-0.65,0.07,-0.25,0.71,3.0,169.44,19.56,-117.44,169.44,19.56,-117.44,0.05,-0.24,-0.81,-0.53
1.0,91.0,-14.19,28.44,91.0,-14.19,28.44,-0.68,0.08,-0.26,0.68,3.0,170.25,19.12,-117.87,170.25,19.12,-117.87,0.04,-0.24,-0.81,-0.53
1.0,92.81,-12.31,28.12,92.81,-12.31,28.12,-0.66,0.08,-0.24,0.71,3.0,172.88,17.62,-118.94,172.88,17.62,-118.94,0.03,-0.24,-0.82,-0.52
1.0,95.31,-11.19,27.0,95.31,-11.19,27.0,-0.64,0.08,-0.24,0.72,3.0,172.75,17.94,-118.06,172.75,17.94,-118.06,0.03,-0.24,-0.82,-0.52
1.0,96.87,-13.94,28.06,96.87,-13.94,28.06,-0.64,0.05,-0.27,0.72,3.0,171.25,19.06,-116.12,171.25,19.06,-116.12,0.04,-0.24,-0.81,-0.54
1.0,97.0,-18.94,27.81,97.0,-18.94,27.81,-0.63,0.01,-0.28,0.73,3.0,169.19,20.31,-115.12,169.19,20.31,-115.12,0.05,-0.24,-0.8,-0.55
1.0,101.19,-18.25,26.5,101.19,-18.25,26.5,-0.63,0.03,-0.28,0.73,3.0,167.88,20.81,-115.75,167.88,20.81,-115.75,0.06,-0.24,-0.8,-0.54
1.0,94.19,-17.94,30.62,94.19,-17.94,30.62,-0.65,0.06,-0.3,0.7,3.0,164.44,22.12,-115.87,164.44,22.12,-115.87,0.07,-0.24,-0.8,-0.54
1.0,95.87,-15.69,31.0,95.87,-15.69,31.0,-0.63,0.07,-0.29,0.72,3.0,157.63,24.31,-116.69,157.63,24.31,-116.69,0.11,-0.23,-0.81,-0.53
1.0,98.31,-13.06,31.5,98.31,-13.06,31.5,-0.62,0.09,-0.28,0.73,2.0,150.5,26.31,-117.94,150.5,26.31,-117.94,0.14,-0.21,-0.82,-0.52
1.0,101.87,-9.63,32.25,101.87,-9.63,32.25,-0.6,0.11,-0.27,0.75,2.0,146.81,27.06,-117.56,146.81,27.06,-117.56,0.17,-0.19,-0.82,-0.52
1.0,103.87,-7.56,32.56,103.87,-7.56,32.56,-0.59,0.12,-0.26,0.76,2.0,138.63,29.87,-116.37,138.63,29.87,-116.37,0.2,-0.17,-0.81,-0.52
1.0,105.81,-6.5,33.31,105.81,-6.5,33.31,-0.57,0.13,-0.27,0.76,2.0,137.63,29.75,-115.81,137.63,29.75,-115.81,0.2,-0.16,-0.81,-0.52
1.0,107.06,-5.56,33.75,107.06,-5.56,33.75,-0.56,0.13,-0.26,0.78,2.0,140.13,28.44,-114.94,140.13,28.44,-114.94,0.19,-0.16,-0.81,-0.53
1.0,110.0,-3.44,34.25,110.0,-3.44,34.25,-0.54,0.15,-0.26,0.79,2.0,143.0,27.37,-112.69,143.0,27.37,-112.69,0.18,-0.15,-0.8,-0.54
2.0,112.0,-1.06,34.38,112.0,-1.06,34.38,-0.53,0.16,-0.25,0.79,2.0,143.81,27.0,-111.5,143.81,27.0,-111.5,0.18,-0.15,-0.8,-0.55
2.0,113.56,1.12,35.0,113.56,1.12,35.0,-0.52,0.18,-0.25,0.8,2.0,146.25,25.81,-110.5,146.25,25.81,-110.5,0.16,-0.15,-0.8,-0.56
2.0,115.37,3.81,35.69,115.37,3.81,35.69,-0.5,0.2,-0.24,0.81,2.0,149.5,24.56,-109.75,149.5,24.56,-109.75,0.15,-0.15,-0.79,-0.57
2.0,117.0,6.69,35.81,117.0,6.69,35.81,-0.49,0.22,-0.22,0.82,2.0,149.13,24.87,-108.87,149.13,24.87,-108.87,0.16,-0.15,-0.79,-0.57
2.0,119.81,9.44,32.19,119.81,9.44,32.19,-0.48,0.21,-0.18,0.84,2.0,148.38,25.5,-108.06,148.38,25.5,-108.06,0.16,-0.15,-0.78,-0.58
2.0,121.5,11.94,25.62,121.5,11.94,25.62,-0.47,0.2,-0.12,0.85,2.0,148.94,25.94,-107.37,148.94,25.94,-107.37,0.16,-0.16,-0.78,-0.58
2.0,122.75,13.94,19.62,122.75,13.94,19.62,-0.47,0.18,-0.07,0.86,2.0,148.88,26.94,-107.12,148.88,26.94,-107.12,0.16,-0.17,-0.77,-0.59
2.0,123.56,15.5,13.25,123.56,15.5,13.25,-0.47,0.17,-0.02,0.87,2.0,147.69,27.75,-106.62,147.69,27.75,-106.62,0.17,-0.17,-0.77,-0.59
2.0,123.69,16.62,8.19,123.69,16.62,8.19,-0.46,0.16,0.01,0.87,2.0,145.5,29.0,-106.0,145.5,29.0,-106.0,0.19,-0.18,-0.76,-0.59
2.0,123.81,17.12,5.94,123.81,17.12,5.94,-0.46,0.16,0.03,0.87,2.0,143.5,31.69,-105.5,143.5,31.69,-105.5,0.19,-0.21,-0.76,-0.59
2.0,124.0,18.19,4.69,124.0,18.19,4.69,-0.46,0.16,0.05,0.87,2.0,144.44,33.31,-106.5,144.44,33.31,-106.5,0.19,-0.24,-0.75,-0.59
2.0,125.0,19.31,1.81,125.0,19.31,1.81,-0.45,0.15,0.07,0.88,2.0,144.5,36.0,-107.75,144.5,36.0,-107.75,0.18,-0.26,-0.74,-0.59
2.0,126.37,19.69,-1.94,126.37,19.69,-1.94,-0.44,0.14,0.1,0.88,2.0,143.94,34.56,-110.75,143.94,34.56,-110.75,0.21,-0.26,-0.78,-0.53
2.0,126.69,19.5,-3.38,126.69,19.5,-3.38,-0.44,0.14,0.1,0.88,2.0,118.19,42.63,-126.37,118.19,42.63,-126.37,0.31,-0.26,-0.8,-0.43
2.0,127.37,19.06,-3.13,127.37,19.06,-3.13,-0.44,0.14,0.1,0.88,2.0,89.81,57.0,-137.19,89.81,57.0,-137.19,0.35,-0.28,-0.79,-0.42
2.0,127.12,18.81,-2.63,127.12,18.81,-2.63,-0.44,0.14,0.09,0.88,2.0,101.37,48.06,-142.69,101.37,48.06,-142.69,0.28,-0.36,-0.81,-0.37
2.0,126.25,19.25,-1.75,126.25,19.25,-1.75,-0.45,0.14,0.09,0.88,2.0,132.81,34.06,-137.44,132.81,34.06,-137.44,0.15,-0.34,-0.83,-0.42
2.0,126.06,19.44,-0.5,126.06,19.44,-0.5,-0.45,0.15,0.08,0.88,2.0,148.38,31.94,-132.13,148.38,31.94,-132.13,0.12,-0.37,-0.8,-0.47
2.0,125.94,19.69,-0.31,125.94,19.69,-0.31,-0.45,0.15,0.08,0.88,2.0,148.25,35.88,-126.37,148.25,35.88,-126.37,0.15,-0.38,-0.77,-0.49
2.0,126.19,19.19,0.25,126.19,19.19,0.25,-0.45,0.15,0.07,0.88,2.0,141.25,39.13,-128.06,141.25,39.13,-128.06,0.18,-0.39,-0.77,-0.47
3.0,126.31,19.12,1.37,126.31,19.12,1.37,-0.44,0.15,0.06,0.88,2.0,131.69,40.5,-135.88,131.69,40.5,-135.88,0.2,-0.4,-0.8,-0.41
3.0,126.62,19.25,2.06,126.62,19.25,2.06,-0.44,0.16,0.06,0.88,2.0,125.25,38.13,-143.81,125.25,38.13,-143.81,0.2,-0.39,-0.82,-0.37
3.0,126.81,19.37,2.19,126.81,19.37,2.19,-0.44,0.16,0.06,0.88,2.0,119.94,38.13,-145.88,119.94,38.13,-145.88,0.22,-0.38,-0.82,-0.36
3.0,126.62,19.75,2.25,126.62,19.75,2.25,-0.44,0.16,0.06,0.88,2.0,112.81,42.06,-146.75,112.81,42.06,-146.75,0.24,-0.38,-0.81,-0.36
3.0,126.5,20.31,2.94,126.5,20.31,2.94,-0.44,0.17,0.06,0.88,2.0,114.56,38.56,-145.88,114.56,38.56,-145.88,0.23,-0.34,-0.84,-0.35
3.0,126.31,21.06,3.31,126.31,21.06,3.31,-0.44,0.18,0.06,0.88,2.0,113.31,36.0,-147.56,113.31,36.0,-147.56,0.22,-0.3,-0.87,-0.32
3.0,126.31,21.75,3.69,126.31,21.75,3.69,-0.44,0.18,0.06,0.88,2.0,33.75,32.44,-152.75,33.75,32.44,-152.75,0.21,-0.26,-0.91,-0.26
3.0,126.5,22.0,3.38,126.5,22.0,3.38,-0.44,0.18,0.06,0.88,2.0,27.69,29.69,-157.75,27.69,29.69,-157.75,0.21,-0.21,-0.93,-0.22
3.0,127.25,22.19,1.5,127.25,22.19,1.5,-0.43,0.18,0.08,0.88,2.0,20.69,27.69,-161.69,20.69,27.69,-161.69,0.22,-0.16,-0.95,-0.17
3.0,128.56,22.19,-1.81,128.56,22.19,-1.81,-0.42,0.16,0.11,0.89,2.0,15.69,29.25,-166.94,15.69,29.25,-166.94,0.24,-0.12,-0.96,-0.12
3.0,130.25,21.44,-6.63,130.25,21.44,-6.63,-0.41,0.14,0.14,0.89,2.0,10.69,28.25,-173.0,10.69,28.25,-173.0,0.23,-0.07,-0.97,-0.05
3.0,131.81,20.62,-9.19,131.81,20.62,-9.19,-0.4,0.13,0.14,0.9,2.0,2.81,22.75,-179.25,2.81,22.75,-179.25,0.19,-0.0,-0.98,0.01
3.0,132.69,20.06,-8.06,132.69,20.06,-8.06,-0.39,0.13,0.13,0.9,2.0,357.5,21.56,177.0,357.5,21.56,177.0,0.19,0.04,-0.98,0.03
3.0,133.56,19.44,-8.19,133.56,19.44,-8.19,-0.39,0.13,0.13,0.9,2.0,351.0,18.5,177.5,351.0,18.5,177.5,0.12,0.09,-0.99,0.03
3.0,134.19,18.94,-9.31,134.19,18.94,-9.31,-0.38,0.12,0.14,0.91,2.0,340.38,5.0,177.63,340.38,5.0,177.63,0.01,0.2,-0.98,0.03
3.0,134.44,18.56,-10.25,134.44,18.56,-10.25,-0.38,0.12,0.14,0.91,2.0,332.94,-2.13,176.31,332.94,-2.13,176.31,-0.03,0.23,-0.97,0.03
3.0,134.56,18.5,-10.5,134.56,18.5,-10.5,-0.38,0.12,0.14,0.91,1.0,331.56,-2.81,175.81,331.56,-2.81,175.81,-0.03,0.24,-0.97,0.03
3.0,134.75,18.62,-11.0,134.75,18.62,-11.0,-0.38,0.12,0.15,0.91,1.0,327.5,-5.5,175.25,327.5,-5.5,175.25,-0.06,0.28,-0.96,0.03
3.0,134.81,19.06,-12.13,134.81,19.06,-12.13,-0.38,0.12,0.16,0.91,1.0,323.5,-9.06,173.5,323.5,-9.06,173.5,-0.09,0.31,-0.95,0.03
3.0,135.13,19.69,-13.13,135.13,19.69,-13.13,-0.37,0.12,0.17,0.9,1.0,320.81,-10.5,173.31,320.81,-10.5,173.31,-0.11,0.33,-0.94,0.02
3.0,135.69,20.5,-13.63,135.69,20.5,-13.63,-0.37,0.12,0.17,0.91,1.0,318.94,-11.56,173.38,318.94,-11.56,173.38,-0.12,0.36,-0.93,0.02
3.0,136.06,21.0,-14.5,136.06,21.0,-14.5,-0.36,0.13,0.18,0.9,1.0,315.81,-13.06,173.0,315.81,-13.06,173.0,-0.13,0.38,-0.92,0.01
3.0,136.5,21.12,-15.56,136.5,21.12,-15.56,-0.36,0.12,0.19,0.9,1.0,313.94,-12.75,173.19,313.94,-12.75,173.19,-0.13,0.39,-0.91,0.01
3.0,136.81,21.12,-16.19,136.81,21.12,-16.19,-0.36,0.12,0.19,0.91,1.0,313.06,-13.31,172.44,313.06,-13.31,172.44,-0.14,0.4,-0.91,0.01
3.0,137.13,21.19,-16.06,137.13,21.19,-16.06,-0.35,0.13,0.19,0.91,1.0,310.81,-14.63,172.94,310.81,-14.63,172.94,-0.14,0.42,-0.9,-0.0
3.0,137.75,21.56,-14.94,137.75,21.56,-14.94,-0.35,0.13,0.18,0.91,1.0,310.0,-14.81,172.5,310.0,-14.81,172.5,-0.14,0.41,-0.9,0.01
3.0,138.31,21.62,-14.0,138.31,21.62,-14.0,-0.35,0.14,0.17,0.91,1.0,310.5,-14.38,172.81,310.5,-14.38,172.81,-0.14,0.42,-0.9,-0.0
3.0,138.44,21.37,-14.31,138.44,21.37,-14.31,-0.35,0.13,0.18,0.91,1.0,308.88,-15.88,173.94,308.88,-15.88,173.94,-0.15,0.43,-0.89,-0.02
3.0,138.31,21.37,-14.44,138.31,21.37,-14.44,-0.35,0.13,0.18,0.91,2.0,308.13,-16.69,174.25,308.13,-16.69,174.25,-0.15,0.43,-0.89,-0.02
3.0,138.31,21.56,-14.0,138.31,21.56,-14.0,-0.35,0.14,0.17,0.91,2.0,308.13,-16.5,175.81,308.13,-16.5,175.81,-0.15,0.43,-0.89,-0.04
3.0,138.25,22.5,-12.69,138.25,22.5,-12.69,-0.35,0.15,0.17,0.91,2.0,307.75,-17.37,177.88,307.75,-17.37,177.88,-0.14,0.44,-0.89,-0.05
3.0,138.38,23.12,-12.38,138.38,23.12,-12.38,-0.35,0.15,0.17,0.91,2.0,307.94,-16.69,179.06,307.94,-16.69,179.06,-0.14,0.43,-0.89,-0.06
3.0,138.44,23.69,-12.44,138.44,23.69,-12.44,-0.34,0.16,0.17,0.91,2.0,308.0,-17.44,179.06,308.0,-17.44,179.06,-0.14,0.43,-0.89,-0.06
3.0,138.44,24.12,-12.81,138.44,24.12,-12.81,-0.34,0.16,0.17,0.91,2.0,308.81,-17.62,-179.75,308.81,-17.62,-179.75,-0.14,0.42,-0.89,-0.07
3.0,138.56,24.44,-13.13,138.56,24.44,-13.13,-0.34,0.16,0.18,0.91,2.0,310.0,-18.62,-178.63,310.0,-18.62,-178.63,-0.15,0.42,-0.89,-0.08
3.0,138.69,24.56,-13.25,138.69,24.56,-13.25,-0.34,0.17,0.17,0.91,2.0,310.5,-19.37,-178.38,310.5,-19.37,-178.38,-0.15,0.41,-0.9,-0.08
3.0,138.31,25.87,-11.0,138.31,25.87,-11.0,-0.35,0.18,0.16,0.91,2.0,311.38,-18.56,-178.13,311.38,-18.56,-178.13,-0.14,0.4,-0.9,-0.08
3.0,138.19,26.62,-9.25,138.19,26.62,-9.25,-0.34,0.19,0.15,0.91,2.0,311.5,-19.44,-177.06,311.5,-19.44,-177.06,-0.15,0.41,-0.9,-0.1
3.0,138.69,27.0,-8.19,138.69,27.0,-8.19,-0.34,0.2,0.14,0.91,2.0,309.88,-20.69,-176.75,309.88,-20.69,-176.75,-0.15,0.42,-0.89,-0.1
3.0,139.19,27.06,-7.75,139.19,27.06,-7.75,-0.34,0.2,0.14,0.91,2.0,309.25,-20.81,-177.13,309.25,-20.81,-177.13,-0.15,0.42,-0.89,-0.1
3.0,139.19,27.31,-7.31,139.19,27.31,-7.31,-0.34,0.2,0.14,0.91,3.0,308.75,-20.19,-177.69,308.75,-20.19,-177.69,-0.15,0.43,-0.89,-0.09
3.0,139.81,27.5,-7.38,139.81,27.5,-7.38,-0.33,0.2,0.14,0.91,3.0,308.94,-18.56,-177.56,308.94,-18.56,-177.56,-0.13,0.42,-0.89,-0.09
3.0,139.69,27.87,-7.13,139.69,27.87,-7.13,-0.33,0.21,0.14,0.91,3.0,309.5,-15.38,-176.81,309.5,-15.38,-176.81,-0.11,0.42,-0.9,-0.08
3.0,140.13,28.25,-6.94,140.13,28.25,-6.94,-0.33,0.21,0.13,0.91,3.0,310.0,-11.56,-175.94,310.0,-11.56,-175.94,-0.08,0.42,-0.9,-0.07
3.0,140.56,28.5,-6.56,140.56,28.5,-6.56,-0.33,0.22,0.13,0.91,3.0,310.44,-8.31,-175.06,310.44,-8.31,-175.06,-0.05,0.42,-0.9,-0.07
3.0,140.56,28.56,-6.31,140.56,28.56,-6.31,-0.33,0.22,0.13,0.91,3.0,311.06,-5.94,-174.5,311.06,-5.94,-174.5,-0.03,0.41,-0.91,-0.06
3.0,141.06,28.56,-6.06,141.06,28.56,-6.06,-0.32,0.22,0.13,0.91,3.0,311.25,-4.56,-174.25,311.25,-4.56,-174.25,-0.02,0.41,-0.91,-0.06
3.0,141.13,28.56,-5.81,141.13,28.56,-5.81,-0.32,0.22,0.12,0.91,3.0,311.31,-3.88,-174.44,311.31,-3.88,-174.44,-0.01,0.41,-0.91,-0.06
3.0,141.63,28.5,-5.69,141.63,28.5,-5.69,-0.32,0.22,0.12,0.91,3.0,311.31,-3.69,-174.81,311.31,-3.69,-174.81,-0.01,0.41,-0.91,-0.05
3.0,142.13,28.37,-5.75,142.13,28.37,-5.75,-0.31,0.22,0.12,0.92,3.0,311.38,-3.63,-175.06,311.38,-3.63,-175.06,-0.01,0.41,-0.91,-0.05
3.0,142.06,28.25,-5.81,142.06,28.25,-5.81,-0.31,0.22,0.12,0.92,3.0,311.38,-3.5,-175.19,311.38,-3.5,-175.19,-0.01,0.41,-0.91,-0.05
3.0,142.56,28.12,-5.94,142.56,28.12,-5.94,-0.31,0.22,0.12,0.92,3.0,311.38,-3.63,-175.06,311.38,-3.63,-175.06,-0.01,0.41,-0.91,-0.05
3.0,142.5,28.12,-6.13,142.5,28.12,-6.13,-0.31,0.21,0.12,0.92,3.0,311.44,-3.88,-175.06,311.44,-3.88,-175.06,-0.01,0.41,-0.91,-0.05
3.0,142.56,28.06,-6.44,142.56,28.06,-6.44,-0.31,0.21,0.13,0.92,3.0,311.44,-4.25,-175.25,311.44,-4.25,-175.25,-0.02,0.41,-0.91,-0.05
3.0,142.81,27.87,-7.06,142.81,27.87,-7.06,-0.31,0.21,0.13,0.92,3.0,311.38,-4.63,-175.63,311.38,-4.63,-175.63,-0.02,0.41,-0.91,-0.05
3.0,142.63,27.56,-7.75,142.63,27.56,-7.75,-0.31,0.2,0.14,0.92,3.0,311.31,-4.94,-175.88,311.31,-4.94,-175.88,-0.03,0.41,-0.91,-0.05
3.0,142.44,27.25,-8.56,142.44,27.25,-8.56,-0.31,0.2,0.14,0.92,3.0,311.38,-4.94,-176.19,311.38,-4.94,-176.19,-0.03,0.41,-0.91,-0.05
3.0,142.13,27.0,-9.25,142.13,27.0,-9.25,-0.31,0.2,0.15,0.92,3.0,311.44,-4.75,-176.88,311.44,-4.75,-176.88,-0.03,0.41,-0.91,-0.04
3.0,142.25,26.87,-9.88,142.25,26.87,-9.88,-0.31,0.19,0.15,0.92,3.0,311.44,-4.5,-177.56,311.44,-4.5,-177.56,-0.03,0.41,-0.91,-0.03
3.0,142.31,26.94,-10.31,142.31,26.94,-10.31,-0.31,0.19,0.16,0.92,3.0,311.56,-3.94,-178.13,311.56,-3.94,-178.13,-0.02,0.41,-0.91,-0.03
3.0,142.13,27.0,-10.69,142.13,27.0,-10.69,-0.31,0.19,0.16,0.92,3.0,311.63,-3.5,-178.56,311.63,-3.5,-178.56,-0.02,0.41,-0.91,-0.02
3.0,142.0,27.12,-10.69,142.0,27.12,-10.69,-0.32,0.2,0.16,0.92,3.0,311.69,-3.31,-178.88,311.69,-3.31,-178.88,-0.02,0.41,-0.91,-0.02
3.0,141.81,27.19,-10.69,141.81,27.19,-10.69,-0.32,0.2,0.16,0.92,3.0,311.75,-3.38,-178.75,311.75,-3.38,-178.75,-0.02,0.41,-0.91,-0.02
3.0,142.0,27.31,-10.31,142.0,27.31,-10.31,-0.31,0.2,0.15,0.92,3.0,311.75,-3.19,-178.56,311.75,-3.19,-178.56,-0.02,0.41,-0.91,-0.02
3.0,142.19,27.5,-9.81,142.19,27.5,-9.81,-0.31,0.2,0.15,0.92,3.0,311.81,-2.69,-178.44,311.81,-2.69,-178.44,-0.01,0.41,-0.91,-0.02
3.0,142.19,27.81,-9.38,142.19,27.81,-9.38,-0.31,0.21,0.15,0.92,3.0,311.88,-2.13,-178.44,311.88,-2.13,-178.44,-0.01,0.41,-0.91,-0.02
3.0,142.44,28.06,-8.94,142.44,28.06,-8.94,-0.31,0.21,0.14,0.92,3.0,311.94,-1.25,-178.56,311.94,-1.25,-178.56,-0.0,0.41,-0.91,-0.01
3.0,142.56,28.19,-8.63,142.56,28.19,-8.63,-0.31,0.21,0.14,0.92,3.0,312.06,-0.69,-178.5,312.06,-0.69,-178.5,0.0,0.41,-0.91,-0.01
3.0,142.75,28.25,-8.56,142.75,28.25,-8.56,-0.31,0.21,0.14,0.92,3.0,312.13,-0.5,-178.31,312.13,-0.5,-178.31,0.0,0.41,-0.91,-0.02
3.0,142.81,28.31,-8.44,142.81,28.31,-8.44,-0.31,0.21,0.14,0.92,3.0,312.13,-0.44,-178.31,312.13,-0.44,-178.31,0.0,0.41,-0.91,-0.01
3.0,142.88,28.31,-8.38,142.88,28.31,-8.38,-0.31,0.21,0.14,0.92,3.0,312.13,-0.5,-178.5,312.13,-0.5,-178.5,0.0,0.41,-0.91,-0.01
3.0,142.94,28.37,-8.44,142.94,28.37,-8.44,-0.31,0.21,0.14,0.92,3.0,312.13,-0.81,-178.75,312.13,-0.81,-178.75,-0.0,0.41,-0.91,-0.01
3.0,142.94,28.37,-8.63,142.94,28.37,-8.63,-0.31,0.21,0.14,0.92,3.0,312.13,-1.25,-179.06,312.13,-1.25,-179.06,-0.01,0.41,-0.91,-0.01
3.0,143.0,28.25,-8.81,143.0,28.25,-8.81,-0.31,0.21,0.14,0.92,3.0,312.13,-1.5,-179.31,312.13,-1.5,-179.31,-0.01,0.41,-0.91,-0.01
3.0,143.13,28.12,-9.0,143.13,28.12,-9.0,-0.31,0.21,0.14,0.92,3.0,312.13,-1.56,-179.44,312.13,-1.56,-179.44,-0.01,0.41,-0.91,-0.01
3.0,143.13,28.06,-9.06,143.13,28.06,-9.06,-0.31,0.21,0.15,0.92,3.0,312.06,-1.56,-179.56,312.06,-1.56,-179.56,-0.01,0.41,-0.91,-0.01
3.0,143.25,28.06,-9.25,143.25,28.06,-9.25,-0.3,0.21,0.15,0.92,3.0,312.06,-1.44,-179.63,312.06,-1.44,-179.63,-0.01,0.41,-0.91,-0.01
3.0,143.25,28.0,-9.31,143.25,28.0,-9.31,-0.3,0.21,0.15,0.92,3.0,312.13,-1.25,-179.63,312.13,-1.25,-179.63,-0.01,0.41,-0.91,-0.01
3.0,143.31,28.0,-9.31,143.31,28.0,-9.31,-0.3,0.21,0.15,0.92,3.0,312.13,-1.19,-179.63,312.13,-1.19,-179.63,-0.01,0.41,-0.91,-0.01
3.0,143.31,28.0,-9.25,143.31,28.0,-9.25,-0.3,0.21,0.15,0.92,3.0,312.13,-1.12,-179.81,312.13,-1.12,-179.81,-0.01,0.41,-0.91,-0.01
3.0,143.5,28.0,-9.25,143.5,28.0,-9.25,-0.3,0.21,0.15,0.92,3.0,312.13,-1.19,-179.94,312.13,-1.19,-179.94,-0.01,0.41,-0.91,-0.0
3.0,143.56,28.0,-9.25,143.56,28.0,-9.25,-0.3,0.21,0.15,0.92,3.0,312.13,-1.25,179.94,312.13,-1.25,179.94,-0.01,0.41,-0.91,-0.0
3.0,143.56,28.0,-9.25,143.56,28.0,-9.25,-0.3,0.21,0.15,0.92,3.0,312.13,-1.25,179.88,312.13,-1.25,179.88,-0.01,0.41,-0.91,-0.0
3.0,143.56,28.0,-9.19,143.56,28.0,-9.19,-0.3,0.21,0.15,0.92,3.0,312.13,-1.31,179.88,312.13,-1.31,179.88,-0.01,0.41,-0.91,-0.0
3.0,143.56,28.06,-9.25,143.56,28.06,-9.25,-0.3,0.21,0.15,0.92,3.0,312.13,-1.31,179.88,312.13,-1.31,179.88,-0.01,0.41,-0.91,-0.0
3.0,143.63,28.06,-9.19,143.63,28.06,-9.19,-0.3,0.21,0.14,0.92,3.0,312.13,-1.5,179.81,312.13,-1.5,179.81,-0.01,0.41,-0.91,-0.0
3.0,143.63,28.12,-9.13,143.63,28.12,-9.13,-0.3,0.21,0.14,0.92,3.0,312.13,-1.81,179.56,312.13,-1.81,179.56,-0.02,0.41,-0.91,-0.0
3.0,143.56,28.12,-8.88,143.56,28.12,-8.88,-0.3,0.21,0.14,0.92,3.0,312.06,-2.19,179.31,312.06,-2.19,179.31,-0.02,0.41,-0.91,-0.0
3.0,143.5,28.19,-8.69,143.5,28.19,-8.69,-0.3,0.21,0.14,0.92,3.0,312.13,-2.5,179.19,312.13,-2.5,179.19,-0.02,0.41,-0.91,-0.0
3.0,143.5,28.12,-8.69,143.5,28.12,-8.69,-0.3,0.21,0.14,0.92,3.0,312.13,-2.81,179.19,312.13,-2.81,179.19,-0.03,0.41,-0.91,-0.0
3.0,143.56,28.19,-8.69,143.56,28.19,-8.69,-0.3,0.21,0.14,0.92,3.0,312.06,-2.88,179.19,312.06,-2.88,179.19,-0.03,0.41,-0.91,-0.0
3.0,143.63,28.19,-8.69,143.63,28.19,-8.69,-0.3,0.21,0.14,0.92,3.0,312.13,-2.69,179.19,312.13,-2.69,179.19,-0.02,0.41,-0.91,-0.0
3.0,143.69,28.19,-8.56,143.69,28.19,-8.56,-0.3,0.21,0.14,0.92,3.0,312.13,-2.38,179.13,312.13,-2.38,179.13,-0.02,0.41,-0.91,-0.0
3.0,143.88,28.19,-8.5,143.88,28.19,-8.5,-0.3,0.21,0.14,0.92,3.0,312.19,-2.06,179.13,312.19,-2.06,179.13,-0.02,0.41,-0.91,-0.0
3.0,143.88,28.25,-8.56,143.88,28.25,-8.56,-0.3,0.21,0.14,0.92,3.0,312.19,-1.5,179.25,312.19,-1.5,179.25,-0.01,0.41,-0.91,0.0
3.0,143.88,28.31,-8.63,143.88,28.31,-8.63,-0.3,0.21,0.14,0.92,3.0,312.13,-1.25,179.31,312.13,-1.25,179.31,-0.01,0.41,-0.91,0.0
3.0,143.88,28.31,-8.63,143.88,28.31,-8.63,-0.3,0.21,0.14,0.92,3.0,312.13,-1.37,179.19,312.13,-1.37,179.19,-0.02,0.41,-0.91,0.0
3.0,143.75,28.25,-8.69,143.75,28.25,-8.69,-0.3,0.21,0.14,0.92,3.0,312.13,-2.06,179.19,312.13,-2.06,179.19,-0.02,0.41,-0.91,-0.0
3.0,143.69,28.25,-8.69,143.69,28.25,-8.69,-0.3,0.21,0.14,0.92,3.0,312.13,-2.38,179.31,312.13,-2.38,179.31,-0.02,0.41,-0.91,-0.0
3.0,143.69,28.25,-8.56,143.69,28.25,-8.56,-0.3,0.21,0.14,0.92,3.0,312.13,-2.31,179.31,312.13,-2.31,179.31,-0.02,0.41,-0.91,-0.0
3.0,143.75,28.19,-8.5,143.75,28.19,-8.5,-0.3,0.21,0.14,0.92,3.0,312.19,-1.94,179.25,312.19,-1.94,179.25,-0.02,0.41,-0.91,-0.0
3.0,143.75,28.19,-8.38,143.75,28.19,-8.38,-0.3,0.21,0.14,0.92,3.0,312.19,-1.44,179.13,312.19,-1.44,179.13,-0.01,0.4,-0.91,0.0
3.0,143.81,28.19,-8.31,143.81,28.19,-8.31,-0.3,0.21,0.14,0.92,3.0,312.19,-0.81,179.25,312.19,-0.81,179.25,-0.01,0.4,-0.91,0.0
3.0,143.81,28.25,-8.38,143.81,28.25,-8.38,-0.3,0.21,0.14,0.92,3.0,312.19,-0.31,179.5,312.19,-0.31,179.5,-0.0,0.4,-0.91,0.0
3.0,143.88,28.31,-8.38,143.88,28.31,-8.38,-0.3,0.21,0.14,0.92,3.0,312.19,0.0,179.81,312.19,0.0,179.81,0.0,0.4,-0.91,0.0
3.0,143.88,28.44,-8.25,143.88,28.44,-8.25,-0.3,0.21,0.14,0.92,3.0,312.19,0.25,-179.81,312.19,0.25,-179.81,0.0,0.4,-0.91,-0.0
3.0,143.88,28.5,-8.19,143.88,28.5,-8.19,-0.3,0.22,0.14,0.92,3.0,312.19,0.25,-179.63,312.19,0.25,-179.63,0.0,0.4,-0.91,-0.0
3.0,143.88,28.56,-8.0,143.88,28.56,-8.0,-0.3,0.22,0.14,0.92,3.0,312.19,0.25,-179.69,312.19,0.25,-179.69,0.0,0.41,-0.91,-0.0
3.0,143.88,28.62,-7.94,143.88,28.62,-7.94,-0.3,0.22,0.14,0.92,3.0,312.19,0.31,-179.75,312.19,0.31,-179.75,0.0,0.41,-0.91,-0.0
3.0,143.94,28.56,-7.88,143.94,28.56,-7.88,-0.3,0.22,0.14,0.92,3.0,312.13,0.25,-179.94,312.13,0.25,-179.94,0.0,0.41,-0.91,0.0
3.0,143.88,28.56,-7.69,143.88,28.56,-7.69,-0.3,0.22,0.13,0.92,3.0,312.13,0.06,179.75,312.13,0.06,179.75,-0.0,0.41,-0.91,0.0
3.0,143.88,28.56,-7.56,143.88,28.56,-7.56,-0.3,0.22,0.13,0.92,3.0,312.13,0.0,179.63,312.13,0.0,179.63,-0.0,0.41,-0.91,0.0
3.0,143.81,28.56,-7.44,143.81,28.56,-7.44,-0.3,0.22,0.13,0.92,3.0,312.13,-0.19,179.38,312.13,-0.19,179.38,-0.0,0.41,-0.91,0.0
3.0,143.75,28.56,-7.25,143.75,28.56,-7.25,-0.3,0.22,0.13,0.92,3.0,312.13,-0.37,179.13,312.13,-0.37,179.13,-0.01,0.41,-0.91,0.01
3.0,143.75,28.56,-7.19,143.75,28.56,-7.19,-0.3,0.22,0.13,0.92,3.0,312.13,-0.63,178.88,312.13,-0.63,178.88,-0.01,0.41,-0.91,0.01
3.0,143.75,28.56,-7.13,143.75,28.56,-7.13,-0.3,0.22,0.13,0.92,3.0,312.19,-0.69,178.63,312.19,-0.69,178.63,-0.01,0.41,-0.91,0.01
3.0,143.75,28.56,-7.19,143.75,28.56,-7.19,-0.3,0.22,0.13,0.92,3.0,312.19,-0.75,178.38,312.19,-0.75,178.38,-0.01,0.4,-0.91,0.01
3.0,143.75,28.56,-7.13,143.75,28.56,-7.13,-0.3,0.22,0.13,0.92,3.0,312.25,-0.81,178.19,312.25,-0.81,178.19,-0.01,0.4,-0.91,0.01
3.0,143.75,28.62,-7.0,143.75,28.62,-7.0,-0.3,0.22,0.13,0.92,3.0,312.25,-0.75,177.94,312.25,-0.75,177.94,-0.01,0.4,-0.91,0.01
3.0,143.75,28.62,-7.06,143.75,28.62,-7.06,-0.3,0.22,0.13,0.92,3.0,312.38,-0.75,177.63,312.38,-0.75,177.63,-0.01,0.4,-0.91,0.02
3.0,143.75,28.62,-7.13,143.75,28.62,-7.13,-0.3,0.22,0.13,0.92,3.0,312.63,-1.0,177.31,312.63,-1.0,177.31,-0.02,0.4,-0.92,0.02
3.0,143.75,28.62,-7.44,143.75,28.62,-7.44,-0.3,0.22,0.13,0.92,3.0,312.75,-1.44,176.94,312.75,-1.44,176.94,-0.02,0.4,-0.92,0.02
3.0,143.81,28.31,-7.88,143.81,28.31,-7.88,-0.3,0.21,0.14,0.92,3.0,312.63,-2.13,176.5,312.63,-2.13,176.5,-0.03,0.4,-0.92,0.02
3.0,143.88,28.19,-7.81,143.88,28.19,-7.81,-0.3,0.21,0.13,0.92,3.0,312.5,-2.5,176.31,312.5,-2.5,176.31,-0.03,0.4,-0.91,0.02
3.0,143.88,28.31,-7.69,143.88,28.31,-7.69,-0.3,0.21,0.13,0.92,3.0,312.44,-2.88,176.25,312.44,-2.88,176.25,-0.04,0.4,-0.91,0.02
3.0,143.88,28.37,-7.69,143.88,28.37,-7.69,-0.3,0.22,0.13,0.92,3.0,312.5,-2.81,176.81,312.5,-2.81,176.81,-0.03,0.4,-0.92,0.01
3.0,143.75,28.5,-7.56,143.75,28.5,-7.56,-0.3,0.22,0.13,0.92,3.0,312.75,-2.38,177.38,312.75,-2.38,177.38,-0.03,0.4,-0.92,0.01
3.0,143.75,28.56,-7.44,143.75,28.56,-7.44,-0.3,0.22,0.13,0.92,3.0,312.81,-2.06,177.63,312.81,-2.06,177.63,-0.02,0.4,-0.92,0.01
3.0,143.75,28.5,-7.44,143.75,28.5,-7.44,-0.3,0.22,0.13,0.92,3.0,312.81,-1.88,177.44,312.81,-1.88,177.44,-0.02,0.4,-0.92,0.01
3.0,143.75,28.44,-7.25,143.75,28.44,-7.25,-0.3,0.22,0.13,0.92,3.0,312.81,-1.88,177.31,312.81,-1.88,177.31,-0.02,0.4,-0.92,0.01
3.0,143.63,28.31,-6.69,143.63,28.31,-6.69,-0.3,0.22,0.13,0.92,3.0,312.88,-2.0,177.25,312.88,-2.0,177.25,-0.03,0.4,-0.92,0.01
3.0,143.38,28.19,-6.13,143.38,28.19,-6.13,-0.3,0.22,0.12,0.92,3.0,313.0,-2.38,177.25,313.0,-2.38,177.25,-0.03,0.4,-0.92,0.01
3.0,143.25,28.12,-6.06,143.25,28.12,-6.06,-0.31,0.22,0.12,0.92,3.0,313.19,-2.94,177.38,313.19,-2.94,177.38,-0.03,0.4,-0.92,0.01
3.0,143.13,28.12,-5.94,143.13,28.12,-5.94,-0.31,0.22,0.12,0.92,3.0,313.25,-3.38,177.38,313.25,-3.38,177.38,-0.04,0.4,-0.92,0.01
3.0,143.06,28.19,-5.81,143.06,28.19,-5.81,-0.31,0.22,0.12,0.92,3.0,313.19,-3.88,177.44,313.19,-3.88,177.44,-0.04,0.4,-0.92,0.01
3.0,143.0,28.25,-5.63,143.0,28.25,-5.63,-0.31,0.22,0.12,0.92,3.0,313.19,-4.38,177.56,313.19,-4.38,177.56,-0.05,0.4,-0.92,0.0
3.0,142.94,28.31,-5.44,142.94,28.31,-5.44,-0.31,0.22,0.12,0.92,3.0,313.19,-5.56,177.44,313.19,-5.56,177.44,-0.06,0.4,-0.92,0.0
3.0,142.88,28.25,-5.38,142.88,28.25,-5.38,-0.31,0.22,0.12,0.92,3.0,313.06,-6.5,177.0,313.06,-6.5,177.0,-0.06,0.4,-0.92,0.0
3.0,142.94,28.12,-5.56,142.94,28.12,-5.56,-0.31,0.22,0.12,0.92,3.0,313.06,-6.94,176.44,313.06,-6.94,176.44,-0.07,0.4,-0.92,0.01
3.0,142.94,28.0,-5.63,142.94,28.0,-5.63,-0.31,0.22,0.12,0.92,3.0,313.0,-7.19,175.81,313.0,-7.19,175.81,-0.07,0.4,-0.91,0.01
3.0,142.94,28.0,-5.63,142.94,28.0,-5.63,-0.31,0.22,0.12,0.92,3.0,313.0,-7.13,175.56,313.0,-7.13,175.56,-0.07,0.4,-0.91,0.01
3.0,142.94,27.94,-5.69,142.94,27.94,-5.69,-0.31,0.22,0.12,0.92,3.0,313.13,-6.63,175.88,313.13,-6.63,175.88,-0.07,0.4,-0.92,0.01
3.0,142.88,28.06,-5.63,142.88,28.06,-5.63,-0.31,0.22,0.12,0.92,3.0,313.25,-6.06,176.38,313.25,-6.06,176.38,-0.06,0.4,-0.92,0.01
3.0,142.81,28.12,-5.75,142.81,28.12,-5.75,-0.31,0.22,0.12,0.92,3.0,313.38,-5.69,176.88,313.38,-5.69,176.88,-0.05,0.39,-0.92,0.0
3.0,142.81,28.12,-5.94,142.81,28.12,-5.94,-0.31,0.22,0.12,0.92,3.0,313.44,-5.25,177.25,313.44,-5.25,177.25,-0.05,0.39,-0.92,0.0
3.0,142.75,28.12,-6.0,142.75,28.12,-6.0,-0.31,0.22,0.12,0.92,3.0,313.44,-5.0,177.56,313.44,-5.0,177.56,-0.05,0.39,-0.92,0.0
3.0,142.75,28.06,-5.88,142.75,28.06,-5.88,-0.31,0.22,0.12,0.92,3.0,313.38,-4.94,177.69,313.38,-4.94,177.69,-0.05,0.39,-0.92,0.0
3.0,142.75,28.06,-5.69,142.75,28.06,-5.69,-0.31,0.22,0.12,0.92,3.0,313.31,-5.19,177.75,313.31,-5.19,177.75,-0.05,0.4,-0.92,-0.0
3.0,142.75,28.06,-5.69,142.75,28.06,-5.69,-0.31,0.22,0.12,0.92,3.0,313.25,-5.44,177.81,313.25,-5.44,177.81,-0.05,0.4,-0.92,-0.0
3.0,142.75,28.06,-5.56,142.75,28.06,-5.56,-0.31,0.22,0.12,0.92,3.0,313.19,-6.06,177.81,313.19,-6.06,177.81,-0.06,0.4,-0.92,-0.0
3.0,142.75,28.06,-5.56,142.75,28.06,-5.56,-0.31,0.22,0.12,0.92,3.0,313.0,-6.88,177.81,313.0,-6.88,177.81,-0.06,0.4,-0.92,-0.01
3.0,142.75,28.0,-5.56,142.75,28.0,-5.56,-0.31,0.22,0.12,0.92,3.0,312.81,-7.31,177.56,312.81,-7.31,177.56,-0.07,0.4,-0.91,-0.01
3.0,142.69,28.0,-5.75,142.69,28.0,-5.75,-0.31,0.21,0.12,0.92,3.0,312.69,-7.38,177.25,312.69,-7.38,177.25,-0.07,0.4,-0.91,-0.0
3.0,142.69,27.94,-6.06,142.69,27.94,-6.06,-0.31,0.21,0.12,0.92,3.0,312.69,-7.5,177.25,312.69,-7.5,177.25,-0.07,0.4,-0.91,-0.0
3.0,142.63,27.87,-6.13,142.63,27.87,-6.13,-0.31,0.21,0.12,0.92,3.0,312.69,-7.63,177.19,312.69,-7.63,177.19,-0.07,0.4,-0.91,-0.0
3.0,142.63,27.94,-6.0,142.63,27.94,-6.0,-0.31,0.21,0.12,0.92,3.0,312.69,-7.63,176.75,312.69,-7.63,176.75,-0.07,0.4,-0.91,-0.0
3.0,142.69,28.0,-5.94,142.69,28.0,-5.94,-0.31,0.21,0.12,0.92,3.0,312.69,-7.69,176.38,312.69,-7.69,176.38,-0.07,0.4,-0.91,0.0
3.0,142.69,28.0,-5.94,142.69,28.0,-5.94,-0.31,0.21,0.12,0.92,3.0,312.69,-7.75,176.19,312.69,-7.75,176.19,-0.08,0.4,-0.91,0.0
3.0,142.69,28.0,-5.94,142.69,28.0,-5.94,-0.31,0.21,0.12,0.92,3.0,312.69,-7.81,176.06,312.69,-7.81,176.06,-0.08,0.4,-0.91,0.0
3.0,142.69,28.0,-5.81,142.69,28.0,-5.81,-0.31,0.21,0.12,0.92,3.0,312.69,-7.94,175.94,312.69,-7.94,175.94,-0.08,0.4,-0.91,0.0
3.0,142.69,28.0,-5.81,142.69,28.0,-5.81,-0.31,0.21,0.12,0.92,3.0,312.75,-8.19,175.75,312.75,-8.19,175.75,-0.08,0.4,-0.91,0.0
3.0,142.69,28.0,-5.88,142.69,28.0,-5.88,-0.31,0.22,0.12,0.92,3.0,312.75,-8.69,175.5,312.75,-8.69,175.5,-0.09,0.4,-0.91,0.01
3.0,142.69,28.06,-5.88,142.69,28.06,-5.88,-0.31,0.22,0.12,0.92,3.0,312.81,-9.38,175.13,312.81,-9.38,175.13,-0.09,0.4,-0.91,0.01
3.0,142.69,28.06,-6.0,142.69,28.06,-6.0,-0.31,0.21,0.12,0.92,3.0,312.88,-10.06,174.63,312.88,-10.06,174.63,-0.1,0.4,-0.91,0.01
3.0,142.69,28.06,-6.06,142.69,28.06,-6.06,-0.31,0.21,0.12,0.92,3.0,312.94,-10.5,174.31,312.94,-10.5,174.31,-0.1,0.4,-0.91,0.01
3.0,142.69,28.12,-6.0,142.69,28.12,-6.0,-0.31,0.22,0.12,0.92,3.0,313.06,-10.94,174.19,313.06,-10.94,174.19,-0.11,0.4,-0.91,0.01
3.0,142.69,28.12,-5.94,142.69,28.12,-5.94,-0.31,0.22,0.12,0.92,3.0,313.13,-11.69,174.13,313.13,-11.69,174.13,-0.12,0.39,-0.91,0.0
3.0,142.75,28.12,-6.0,142.75,28.12,-6.0,-0.31,0.22,0.12,0.92,3.0,313.13,-12.81,174.13,313.13,-12.81,174.13,-0.13,0.39,-0.91,-0.0
3.0,142.75,28.12,-5.94,142.75,28.12,-5.94,-0.31,0.22,0.12,0.92,3.0,313.13,-14.25,174.19,313.13,-14.25,174.19,-0.14,0.39,-0.91,-0.01
3.0,142.75,28.12,-5.94,142.75,28.12,-5.94,-0.31,0.22,0.12,0.92,3.0,313.13,-15.5,174.25,313.13,-15.5,174.25,-0.15,0.39,-0.91,-0.01
3.0,142.75,28.19,-5.94,142.75,28.19,-5.94,-0.31,0.22,0.12,0.92,3.0,313.06,-16.44,174.69,313.06,-16.44,174.69,-0.15,0.39,-0.91,-0.02
3.0,142.88,28.19,-5.94,142.88,28.19,-5.94,-0.31,0.22,0.12,0.92,3.0,312.75,-17.62,175.63,312.75,-17.62,175.63,-0.16,0.4,-0.9,-0.03
3.0,142.94,28.19,-6.06,142.94,28.19,-6.06,-0.31,0.22,0.12,0.92,3.0,312.25,-18.62,177.0,312.25,-18.62,177.0,-0.16,0.4,-0.9,-0.05
3.0,143.0,28.25,-6.25,143.0,28.25,-6.25,-0.31,0.22,0.12,0.92,3.0,311.69,-19.5,178.56,311.69,-19.5,178.56,-0.16,0.4,-0.9,-0.06
3.0,143.06,28.31,-6.0,143.06,28.31,-6.0,-0.31,0.22,0.12,0.92,3.0,311.13,-20.56,179.75,311.13,-20.56,179.75,-0.17,0.41,-0.89,-0.08
3.0,143.06,28.44,-5.81,143.06,28.44,-5.81,-0.31,0.22,0.12,0.92,3.0,310.5,-22.0,-179.13,310.5,-22.0,-179.13,-0.17,0.41,-0.89,-0.09
3.0,143.0,28.56,-5.75,143.0,28.56,-5.75,-0.31,0.22,0.12,0.92,3.0,309.81,-23.56,-178.5,309.81,-23.56,-178.5,-0.18,0.42,-0.88,-0.1
3.0,142.94,28.69,-5.81,142.94,28.69,-5.81,-0.31,0.22,0.12,0.92,3.0,309.19,-24.87,-178.38,309.19,-24.87,-178.38,-0.19,0.42,-0.88,-0.1
3.0,142.88,28.94,-5.63,142.88,28.94,-5.63,-0.31,0.22,0.12,0.92,3.0,308.88,-25.87,-178.81,308.88,-25.87,-178.81,-0.2,0.42,-0.88,-0.1
3.0,142.75,29.06,-5.25,142.75,29.06,-5.25,-0.31,0.23,0.12,0.92,3.0,308.75,-26.62,-179.5,308.75,-26.62,-179.5,-0.21,0.42,-0.88,-0.1
3.0,142.69,29.12,-4.94,142.69,29.12,-4.94,-0.31,0.23,0.12,0.92,3.0,308.63,-27.94,179.75,308.63,-27.94,179.75,-0.22,0.42,-0.87,-0.1
3.0,142.63,29.12,-4.88,142.63,29.12,-4.88,-0.31,0.23,0.12,0.92,3.0,308.5,-29.56,178.81,308.5,-29.56,178.81,-0.24,0.42,-0.87,-0.1
3.0,142.56,29.12,-4.88,142.56,29.12,-4.88,-0.31,0.23,0.12,0.92,3.0,308.5,-30.81,177.75,308.5,-30.81,177.75,-0.25,0.42,-0.87,-0.1
3.0,142.56,29.12,-4.88,142.56,29.12,-4.88,-0.31,0.23,0.12,0.92,3.0,308.63,-31.56,177.06,308.63,-31.56,177.06,-0.26,0.42,-0.87,-0.1
3.0,142.56,29.06,-4.94,142.56,29.06,-4.94,-0.31,0.23,0.12,0.92,3.0,308.88,-32.06,176.69,308.88,-32.06,176.69,-0.26,0.41,-0.87,-0.1
3.0,142.5,29.0,-4.94,142.5,29.0,-4.94,-0.31,0.22,0.12,0.92,3.0,309.06,-32.44,176.44,309.06,-32.44,176.44,-0.26,0.41,-0.87,-0.1
3.0,142.5,28.94,-5.0,142.5,28.94,-5.0,-0.31,0.22,0.12,0.92,3.0,309.25,-32.81,176.38,309.25,-32.81,176.38,-0.27,0.41,-0.87,-0.1
3.0,142.5,28.87,-5.25,142.5,28.87,-5.25,-0.31,0.22,0.12,0.92,3.0,309.44,-33.06,176.44,309.44,-33.06,176.44,-0.27,0.41,-0.87,-0.1
3.0,142.56,28.87,-5.31,142.56,28.87,-5.31,-0.31,0.22,0.12,0.92,3.0,309.69,-32.94,176.69,309.69,-32.94,176.69,-0.27,0.41,-0.87,-0.1
3.0,142.56,28.94,-5.44,142.56,28.94,-5.44,-0.31,0.22,0.12,0.92,3.0,310.0,-32.63,176.94,310.0,-32.63,176.94,-0.26,0.41,-0.87,-0.1
3.0,142.56,29.0,-5.44,142.56,29.0,-5.44,-0.31,0.22,0.12,0.92,3.0,310.31,-32.19,177.44,310.31,-32.19,177.44,-0.26,0.4,-0.87,-0.1
3.0,142.56,29.0,-5.5,142.56,29.0,-5.5,-0.31,0.22,0.12,0.92,3.0,310.38,-32.06,178.0,310.38,-32.06,178.0,-0.26,0.4,-0.87,-0.1
3.0,142.56,29.0,-5.5,142.56,29.0,-5.5,-0.31,0.22,0.12,0.92,3.0,310.25,-32.25,178.69,310.25,-32.25,178.69,-0.26,0.4,-0.87,-0.11
3.0,142.56,29.0,-5.5,142.56,29.0,-5.5,-0.31,0.22,0.12,0.92,3.0,310.06,-32.75,179.38,310.06,-32.75,179.38,-0.26,0.4,-0.87,-0.12
3.0,142.63,29.06,-5.44,142.63,29.06,-5.44,-0.31,0.22,0.12,0.92,3.0,309.81,-33.13,-179.81,309.81,-33.13,-179.81,-0.26,0.41,-0.87,-0.12
3.0,142.63,29.06,-5.38,142.63,29.06,-5.38,-0.31,0.22,0.12,0.92,3.0,309.69,-33.31,-179.13,309.69,-33.31,-179.13,-0.26,0.41,-0.87,-0.13
3.0,142.63,29.12,-5.44,142.63,29.12,-5.44,-0.31,0.22,0.12,0.92,3.0,309.5,-33.69,-178.5,309.5,-33.69,-178.5,-0.26,0.41,-0.87,-0.13
3.0,142.69,29.12,-5.5,142.69,29.12,-5.5,-0.31,0.22,0.12,0.92,3.0,309.25,-34.5,-178.13,309.25,-34.5,-178.13,-0.26,0.41,-0.86,-0.14
3.0,142.75,29.06,-5.5,142.75,29.06,-5.5,-0.31,0.22,0.12,0.92,3.0,309.0,-35.19,-177.81,309.0,-35.19,-177.81,-0.27,0.41,-0.86,-0.14
3.0,142.75,29.12,-5.56,142.75,29.12,-5.56,-0.31,0.22,0.12,0.92,3.0,309.0,-35.56,-177.56,309.0,-35.56,-177.56,-0.27,0.41,-0.86,-0.15
3.0,142.81,29.06,-5.75,142.81,29.06,-5.75,-0.31,0.22,0.12,0.92,3.0,309.13,-35.88,-177.13,309.13,-35.88,-177.13,-0.27,0.41,-0.86,-0.15
3.0,142.81,29.12,-5.63,142.81,29.12,-5.63,-0.31,0.22,0.12,0.92,3.0,309.06,-36.81,-177.06,309.06,-36.81,-177.06,-0.28,0.41,-0.86,-0.16
3.0,142.75,29.12,-5.44,142.75,29.12,-5.44,-0.31,0.22,0.12,0.92,3.0,309.06,-37.69,-176.94,309.06,-37.69,-176.94,-0.29,0.41,-0.85,-0.16
3.0,142.69,29.06,-5.44,142.69,29.06,-5.44,-0.31,0.22,0.12,0.92,3.0,309.25,-39.63,-177.19,309.25,-39.63,-177.19,-0.3,0.4,-0.85,-0.16
3.0,142.69,29.06,-5.19,142.69,29.06,-5.19,-0.31,0.23,0.12,0.92,3.0,309.13,-40.81,-177.38,309.13,-40.81,-177.38,-0.31,0.4,-0.84,-0.17
3.0,142.63,29.06,-5.06,142.63,29.06,-5.06,-0.31,0.23,0.12,0.92,3.0,308.94,-42.75,-177.38,308.94,-42.75,-177.38,-0.33,0.4,-0.84,-0.18
3.0,142.63,29.06,-5.19,142.63,29.06,-5.19,-0.31,0.22,0.12,0.92,3.0,303.38,-45.13,-177.25,303.38,-45.13,-177.25,-0.34,0.4,-0.83,-0.18
3.0,142.63,29.0,-5.19,142.63,29.0,-5.19,-0.31,0.22,0.12,0.92,3.0,303.25,-46.06,-177.19,303.25,-46.06,-177.19,-0.35,0.4,-0.83,-0.19
3.0,142.63,29.0,-5.13,142.63,29.0,-5.13,-0.31,0.22,0.12,0.92,3.0,302.81,-47.63,-176.88,302.81,-47.63,-176.88,-0.36,0.4,-0.82,-0.19
3.0,142.69,29.0,-5.13,142.69,29.0,-5.13,-0.31,0.22,0.12,0.92,3.0,302.75,-48.56,-176.75,302.75,-48.56,-176.75,-0.36,0.4,-0.82,-0.2
3.0,142.69,28.94,-5.19,142.69,28.94,-5.19,-0.31,0.22,0.12,0.92,3.0,302.94,-49.13,-176.81,302.94,-49.13,-176.81,-0.37,0.39,-0.82,-0.2
3.0,142.75,28.94,-5.19,142.75,28.94,-5.19,-0.31,0.22,0.12,0.92,3.0,303.38,-50.94,-176.88,303.38,-50.94,-176.88,-0.38,0.39,-0.81,-0.2
3.0,142.75,28.87,-5.38,142.75,28.87,-5.38,-0.31,0.22,0.12,0.92,3.0,303.56,-51.69,-176.88,303.56,-51.69,-176.88,-0.39,0.39,-0.81,-0.21
3.0,142.81,28.81,-5.56,142.81,28.81,-5.56,-0.31,0.22,0.12,0.92,3.0,303.94,-52.63,-177.0,303.94,-52.63,-177.0,-0.39,0.39,-0.81,-0.21
3.0,142.88,28.81,-5.75,142.88,28.81,-5.75,-0.31,0.22,0.12,0.92,3.0,304.31,-53.19,-177.13,304.31,-53.19,-177.13,-0.4,0.39,-0.81,-0.21
3.0,142.94,28.75,-5.88,142.94,28.75,-5.88,-0.31,0.22,0.12,0.92,3.0,304.75,-53.5,-177.25,304.75,-53.5,-177.25,-0.4,0.39,-0.8,-0.21
3.0,143.0,28.75,-6.0,143.0,28.75,-6.0,-0.31,0.22,0.12,0.92,3.0,304.94,-53.81,-177.25,304.94,-53.81,-177.25,-0.4,0.38,-0.8,-0.21
3.0,143.06,28.69,-6.0,143.06,28.69,-6.0,-0.31,0.22,0.12,0.92,3.0,304.94,-54.25,-177.13,304.94,-54.25,-177.13,-0.41,0.38,-0.8,-0.21
3.0,143.06,28.75,-6.0,143.06,28.75,-6.0,-0.31,0.22,0.12,0.92,3.0,304.81,-54.75,-177.0,304.81,-54.75,-177.0,-0.41,0.38,-0.8,-0.21
3.0,143.13,28.69,-6.0,143.13,28.69,-6.0,-0.31,0.22,0.12,0.92,3.0,304.56,-55.31,-176.75,304.56,-55.31,-176.75,-0.41,0.38,-0.8,-0.22
3.0,143.13,28.75,-6.06,143.13,28.75,-6.06,-0.31,0.22,0.12,0.92,3.0,304.13,-55.69,-176.38,304.13,-55.69,-176.38,-0.41,0.38,-0.8,-0.22
3.0,143.13,28.75,-6.13,143.13,28.75,-6.13,-0.31,0.22,0.12,0.92,3.0,303.56,-55.69,-175.94,303.56,-55.69,-175.94,-0.41,0.38,-0.8,-0.22
3.0,143.19,28.75,-6.25,143.19,28.75,-6.25,-0.31,0.22,0.13,0.92,3.0,302.94,-55.44,-175.44,302.94,-55.44,-175.44,-0.41,0.38,-0.8,-0.22
3.0,143.25,28.75,-6.38,143.25,28.75,-6.38,-0.3,0.22,0.13,0.92,3.0,302.94,-55.88,-175.25,302.94,-55.88,-175.25,-0.41,0.38,-0.8,-0.22
3.0,143.31,28.69,-6.5,143.31,28.69,-6.5,-0.3,0.22,0.13,0.92,3.0,303.19,-56.63,-175.25,303.19,-56.63,-175.25,-0.42,0.37,-0.79,-0.23
3.0,143.31,28.69,-6.56,143.31,28.69,-6.56,-0.3,0.22,0.13,0.92,3.0,303.44,-57.25,-175.19,303.44,-57.25,-175.19,-0.42,0.37,-0.79,-0.23
3.0,143.38,28.69,-6.63,143.38,28.69,-6.63,-0.3,0.22,0.13,0.92,3.0,303.81,-57.63,-175.19,303.81,-57.63,-175.19,-0.43,0.37,-0.79,-0.23
3.0,143.38,28.69,-6.69,143.38,28.69,-6.69,-0.3,0.22,0.13,0.92,3.0,304.38,-57.81,-175.31,304.38,-57.81,-175.31,-0.43,0.37,-0.79,-0.23
3.0,143.38,28.75,-6.63,143.38,28.75,-6.63,-0.3,0.22,0.13,0.92,3.0,304.94,-57.63,-175.44,304.94,-57.63,-175.44,-0.43,0.36,-0.8,-0.22
3.0,143.44,28.69,-6.69,143.44,28.69,-6.69,-0.3,0.22,0.13,0.92,3.0,305.44,-57.44,-175.56,305.44,-57.44,-175.56,-0.43,0.36,-0.8,-0.22
3.0,143.44,28.62,-6.69,143.44,28.62,-6.69,-0.3,0.22,0.13,0.92,3.0,306.0,-57.25,-175.75,306.0,-57.25,-175.75,-0.43,0.36,-0.8,-0.22
3.0,143.44,28.62,-6.69,143.44,28.62,-6.69,-0.3,0.22,0.13,0.92,3.0,306.38,-56.94,-175.88,306.38,-56.94,-175.88,-0.43,0.36,-0.8,-0.21
3.0,143.44,28.62,-6.75,143.44,28.62,-6.75,-0.3,0.22,0.13,0.92,2.0,306.75,-56.75,-176.0,306.75,-56.75,-176.0,-0.43,0.36,-0.8,-0.21
3.0,143.44,28.62,-6.88,143.44,28.62,-6.88,-0.3,0.22,0.13,0.92,2.0,307.06,-56.63,-176.13,307.06,-56.63,-176.13,-0.43,0.36,-0.8,-0.21
3.0,143.44,28.62,-6.94,143.44,28.62,-6.94,-0.3,0.22,0.13,0.92,2.0,307.13,-56.63,-176.19,307.13,-56.63,-176.19,-0.43,0.36,-0.8,-0.21
3.0,143.44,28.62,-6.94,143.44,28.62,-6.94,-0.3,0.22,0.13,0.92,2.0,307.19,-57.0,-176.25,307.19,-57.0,-176.25,-0.43,0.36,-0.8,-0.21
3.0,143.5,28.62,-7.06,143.5,28.62,-7.06,-0.3,0.22,0.13,0.92,2.0,307.44,-57.56,-176.44,307.44,-57.56,-176.44,-0.43,0.36,-0.8,-0.21
3.0,143.5,28.69,-7.19,143.5,28.69,-7.19,-0.3,0.22,0.13,0.92,2.0,307.75,-58.19,-176.69,307.75,-58.19,-176.69,-0.44,0.36,-0.8,-0.21
3.0,143.56,28.69,-7.31,143.56,28.69,-7.31,-0.3,0.22,0.13,0.92,2.0,308.0,-58.94,-177.0,308.0,-58.94,-177.0,-0.44,0.36,-0.79,-0.22
3.0,143.56,28.62,-7.38,143.56,28.62,-7.38,-0.3,0.22,0.13,0.92,2.0,308.06,-59.38,-177.13,308.06,-59.38,-177.13,-0.45,0.36,-0.79,-0.22
3.0,143.63,28.62,-7.31,143.63,28.62,-7.31,-0.3,0.22,0.13,0.92,2.0,308.13,-59.56,-177.19,308.13,-59.56,-177.19,-0.45,0.36,-0.79,-0.22
3.0,143.63,28.69,-7.31,143.63,28.69,-7.31,-0.3,0.22,0.13,0.92,2.0,308.25,-59.63,-177.31,308.25,-59.63,-177.31,-0.45,0.36,-0.79,-0.22
3.0,143.56,28.69,-7.38,143.56,28.69,-7.38,-0.3,0.22,0.13,0.92,2.0,308.56,-59.63,-177.5,308.56,-59.63,-177.5,-0.45,0.36,-0.79,-0.22
3.0,143.56,28.69,-7.38,143.56,28.69,-7.38,-0.3,0.22,0.13,0.92,2.0,309.0,-59.44,-177.75,309.0,-59.44,-177.75,-0.45,0.36,-0.79,-0.21
3.0,143.56,28.69,-7.44,143.56,28.69,-7.44,-0.3,0.22,0.13,0.92,2.0,309.5,-59.06,-178.06,309.5,-59.06,-178.06,-0.45,0.35,-0.79,-0.21
3.0,143.56,28.69,-7.5,143.56,28.69,-7.5,-0.3,0.22,0.13,0.92,2.0,309.94,-58.75,-178.31,309.94,-58.75,-178.31,-0.44,0.35,-0.8,-0.21
3.0,143.69,28.75,-7.5,143.69,28.75,-7.5,-0.3,0.22,0.13,0.92,2.0,310.38,-58.5,-178.69,310.38,-58.5,-178.69,-0.44,0.36,-0.8,-0.2
3.0,143.75,28.87,-7.56,143.75,28.87,-7.56,-0.3,0.22,0.13,0.92,2.0,310.63,-58.25,-178.94,310.63,-58.25,-178.94,-0.44,0.36,-0.8,-0.2
3.0,143.88,28.87,-7.63,143.88,28.87,-7.63,-0.3,0.22,0.13,0.92,2.0,310.69,-58.0,-179.06,310.69,-58.0,-179.06,-0.44,0.36,-0.8,-0.2
3.0,143.88,28.87,-7.63,143.88,28.87,-7.63,-0.3,0.22,0.13,0.92,2.0,310.75,-57.81,-179.13,310.75,-57.81,-179.13,-0.44,0.36,-0.8,-0.2
3.0,143.81,28.87,-7.56,143.81,28.87,-7.56,-0.3,0.22,0.13,0.92,2.0,310.69,-57.94,-179.19,310.69,-57.94,-179.19,-0.44,0.36,-0.8,-0.2
3.0,143.81,28.87,-7.56,143.81,28.87,-7.56,-0.3,0.22,0.13,0.92,2.0,310.56,-58.25,-179.19,310.56,-58.25,-179.19,-0.44,0.36,-0.8,-0.2
3.0,143.81,28.94,-7.5,143.81,28.94,-7.5,-0.3,0.22,0.13,0.92,2.0,310.56,-58.63,-179.31,310.56,-58.63,-179.31,-0.45,0.36,-0.79,-0.2
3.0,143.88,28.94,-7.5,143.88,28.94,-7.5,-0.3,0.22,0.13,0.92,2.0,310.69,-58.63,-179.44,310.69,-58.63,-179.44,-0.44,0.36,-0.79,-0.2
3.0,143.88,28.94,-7.56,143.88,28.94,-7.56,-0.3,0.22,0.13,0.92,2.0,310.63,-58.19,-179.38,310.63,-58.19,-179.38,-0.44,0.36,-0.8,-0.2
3.0,143.88,28.87,-7.56,143.88,28.87,-7.56,-0.3,0.22,0.13,0.92,2.0,310.56,-57.81,-179.38,310.56,-57.81,-179.38,-0.44,0.36,-0.8,-0.2
3.0,143.94,28.87,-7.5,143.94,28.87,-7.5,-0.3,0.22,0.13,0.92,2.0,310.69,-57.56,-179.44,310.69,-57.56,-179.44,-0.44,0.36,-0.8,-0.2
3.0,143.94,28.94,-7.5,143.94,28.94,-7.5,-0.3,0.22,0.13,0.92,2.0,311.06,-57.31,-179.63,311.06,-57.31,-179.63,-0.44,0.36,-0.8,-0.2
3.0,143.94,28.94,-7.5,143.94,28.94,-7.5,-0.3,0.22,0.13,0.92,2.0,311.56,-57.13,-179.75,311.56,-57.13,-179.75,-0.44,0.36,-0.8,-0.2
3.0,143.94,28.94,-7.56,143.94,28.94,-7.56,-0.3,0.22,0.13,0.92,2.0,312.25,-57.0,179.94,312.25,-57.0,179.94,-0.44,0.36,-0.8,-0.19
3.0,143.94,28.94,-7.56,143.94,28.94,-7.56,-0.3,0.22,0.13,0.92,2.0,312.88,-56.94,179.63,312.88,-56.94,179.63,-0.44,0.35,-0.8,-0.19
3.0,143.94,28.94,-7.63,143.94,28.94,-7.63,-0.3,0.22,0.13,0.92,2.0,313.5,-56.94,179.38,313.5,-56.94,179.38,-0.44,0.35,-0.81,-0.19
3.0,144.0,28.94,-7.63,144.0,28.94,-7.63,-0.3,0.22,0.13,0.92,2.0,313.94,-56.94,179.19,313.94,-56.94,179.19,-0.44,0.35,-0.81,-0.19
3.0,144.0,28.94,-7.63,144.0,28.94,-7.63,-0.3,0.22,0.14,0.92,2.0,314.25,-56.94,179.13,314.25,-56.94,179.13,-0.44,0.35,-0.81,-0.19
3.0,144.5,29.0,-7.63,144.5,29.0,-7.63,-0.29,0.22,0.13,0.92,2.0,314.38,-57.19,179.0,314.38,-57.19,179.0,-0.44,0.35,-0.81,-0.19
3.0,144.5,29.0,-7.5,144.5,29.0,-7.5,-0.29,0.22,0.13,0.92,2.0,314.38,-57.44,179.0,314.38,-57.44,179.0,-0.44,0.35,-0.8,-0.19
3.0,144.63,29.06,-7.44,144.63,29.06,-7.44,-0.29,0.22,0.13,0.92,2.0,314.25,-57.69,179.0,314.25,-57.69,179.0,-0.44,0.35,-0.8,-0.19
3.0,144.63,29.12,-7.44,144.63,29.12,-7.44,-0.29,0.22,0.13,0.92,2.0,314.19,-57.81,179.0,314.19,-57.81,179.0,-0.45,0.35,-0.8,-0.19
3.0,144.69,29.19,-7.44,144.69,29.19,-7.44,-0.29,0.22,0.13,0.92,2.0,314.13,-58.19,178.88,314.13,-58.19,178.88,-0.45,0.35,-0.8,-0.19
3.0,144.81,29.25,-7.38,144.81,29.25,-7.38,-0.29,0.22,0.13,0.92,2.0,314.31,-58.5,178.75,314.31,-58.5,178.75,-0.45,0.35,-0.8,-0.19
3.0,144.88,29.25,-7.31,144.88,29.25,-7.31,-0.29,0.22,0.13,0.92,2.0,315.0,-59.0,178.19,315.0,-59.0,178.19,-0.46,0.35,-0.8,-0.19
3.0,144.94,29.25,-7.44,144.94,29.25,-7.44,-0.29,0.22,0.13,0.92,2.0,316.69,-60.06,176.88,316.69,-60.06,176.88,-0.47,0.34,-0.79,-0.18
3.0,145.06,29.25,-7.63,145.06,29.25,-7.63,-0.29,0.22,0.13,0.92,2.0,317.06,-60.75,176.44,317.06,-60.75,176.44,-0.47,0.34,-0.79,-0.19
3.0,145.13,29.31,-7.69,145.13,29.31,-7.69,-0.29,0.22,0.13,0.92,2.0,317.31,-61.81,176.06,317.31,-61.81,176.06,-0.48,0.34,-0.79,-0.19
3.0,145.13,29.44,-7.69,145.13,29.44,-7.69,-0.29,0.22,0.13,0.92,2.0,317.31,-62.44,175.88,317.31,-62.44,175.88,-0.48,0.34,-0.78,-0.19
3.0,145.13,29.5,-7.75,145.13,29.5,-7.75,-0.29,0.23,0.13,0.92,2.0,317.06,-62.56,175.94,317.06,-62.56,175.94,-0.48,0.34,-0.78,-0.19
3.0,145.13,29.56,-7.69,145.13,29.56,-7.69,-0.29,0.23,0.13,0.92,2.0,316.69,-62.44,176.19,316.69,-62.44,176.19,-0.48,0.34,-0.78,-0.19
3.0,145.13,29.56,-7.56,145.13,29.56,-7.56,-0.29,0.23,0.13,0.92,2.0,316.38,-62.19,176.44,316.38,-62.19,176.44,-0.48,0.34,-0.78,-0.19
3.0,145.19,29.5,-7.56,145.19,29.5,-7.56,-0.29,0.23,0.13,0.92,2.0,316.25,-62.0,176.5,316.25,-62.0,176.5,-0.48,0.34,-0.78,-0.19
3.0,145.19,29.44,-7.5,145.19,29.44,-7.5,-0.29,0.23,0.13,0.92,2.0,316.63,-61.75,176.31,316.63,-61.75,176.31,-0.48,0.34,-0.79,-0.19
3.0,145.25,29.44,-7.44,145.25,29.44,-7.44,-0.29,0.23,0.13,0.92,2.0,317.25,-61.38,176.0,317.25,-61.38,176.0,-0.48,0.34,-0.79,-0.19
3.0,145.38,29.44,-7.44,145.38,29.44,-7.44,-0.29,0.23,0.13,0.92,2.0,317.81,-61.19,175.69,317.81,-61.19,175.69,-0.48,0.34,-0.79,-0.18
3.0,145.38,29.44,-7.44,145.38,29.44,-7.44,-0.29,0.23,0.13,0.92,2.0,318.31,-61.06,175.44,318.31,-61.06,175.44,-0.48,0.34,-0.79,-0.18
3.0,145.44,29.44,-7.5,145.44,29.44,-7.5,-0.29,0.23,0.13,0.92,2.0,318.81,-61.19,175.0,318.81,-61.19,175.0,-0.48,0.34,-0.79,-0.18
3.0,145.44,29.44,-7.5,145.44,29.44,-7.5,-0.29,0.23,0.13,0.92,2.0,319.31,-61.5,174.63,319.31,-61.5,174.63,-0.48,0.34,-0.79,-0.18
3.0,145.44,29.44,-7.44,145.44,29.44,-7.44,-0.29,0.23,0.13,0.92,2.0,319.63,-61.88,174.31,319.63,-61.88,174.31,-0.48,0.34,-0.79,-0.18
3.0,145.5,29.5,-7.44,145.5,29.5,-7.44,-0.29,0.23,0.13,0.92,2.0,319.75,-61.94,174.25,319.75,-61.94,174.25,-0.48,0.34,-0.79,-0.18
3.0,145.5,29.5,-7.44,145.5,29.5,-7.44,-0.28,0.23,0.13,0.92,2.0,319.56,-61.63,174.44,319.56,-61.63,174.44,-0.48,0.34,-0.79,-0.18
3.0,145.75,29.5,-7.31,145.75,29.5,-7.31,-0.28,0.23,0.13,0.92,2.0,319.44,-61.44,174.63,319.44,-61.44,174.63,-0.48,0.34,-0.79,-0.18
3.0,145.69,29.5,-7.31,145.69,29.5,-7.31,-0.28,0.23,0.13,0.92,2.0,319.25,-61.31,174.81,319.25,-61.31,174.81,-0.48,0.34,-0.79,-0.18
3.0,145.69,29.5,-7.31,145.69,29.5,-7.31,-0.28,0.23,0.13,0.92,2.0,319.0,-61.19,175.0,319.0,-61.19,175.0,-0.48,0.34,-0.79,-0.18
3.0,145.75,29.5,-7.31,145.75,29.5,-7.31,-0.28,0.23,0.13,0.92,2.0,318.94,-61.25,175.19,318.94,-61.25,175.19,-0.48,0.34,-0.79,-0.18
3.0,145.75,29.56,-7.31,145.75,29.56,-7.31,-0.28,0.23,0.13,0.92,2.0,318.88,-61.56,175.25,318.88,-61.56,175.25,-0.48,0.34,-0.79,-0.18
3.0,145.81,29.56,-7.31,145.81,29.56,-7.31,-0.28,0.23,0.13,0.92,2.0,318.69,-61.88,175.38,318.69,-61.88,175.38,-0.48,0.34,-0.79,-0.18
3.0,145.81,29.56,-7.38,145.81,29.56,-7.38,-0.28,0.23,0.13,0.92,2.0,318.56,-62.5,175.44,318.56,-62.5,175.44,-0.49,0.33,-0.78,-0.18
3.0,145.81,29.5,-7.31,145.81,29.5,-7.31,-0.28,0.23,0.13,0.92,2.0,318.56,-63.56,175.25,318.56,-63.56,175.25,-0.5,0.33,-0.78,-0.19
3.0,145.81,29.44,-7.38,145.81,29.44,-7.38,-0.28,0.23,0.13,0.92,2.0,318.75,-64.69,174.88,318.75,-64.69,174.88,-0.5,0.33,-0.78,-0.19
3.0,145.81,29.37,-7.38,145.81,29.37,-7.38,-0.28,0.23,0.13,0.92,2.0,319.19,-65.75,174.44,319.19,-65.75,174.44,-0.51,0.33,-0.77,-0.19
3.0,145.94,29.37,-7.38,145.94,29.37,-7.38,-0.28,0.23,0.13,0.92,2.0,319.63,-66.81,173.81,319.63,-66.81,173.81,-0.52,0.32,-0.77,-0.19
3.0,145.88,29.44,-7.38,145.88,29.44,-7.38,-0.28,0.23,0.13,0.92,2.0,319.94,-67.56,173.38,319.94,-67.56,173.38,-0.53,0.32,-0.77,-0.19
3.0,145.94,29.44,-7.44,145.94,29.44,-7.44,-0.28,0.23,0.13,0.92,2.0,320.13,-68.0,173.13,320.13,-68.0,173.13,-0.53,0.32,-0.76,-0.19
3.0,145.94,29.44,-7.5,145.94,29.44,-7.5,-0.28,0.23,0.13,0.92,2.0,320.31,-68.44,172.94,320.31,-68.44,172.94,-0.53,0.32,-0.76,-0.19
3.0,145.88,29.44,-7.5,145.88,29.44,-7.5,-0.28,0.23,0.13,0.92,2.0,320.5,-68.81,172.63,320.5,-68.81,172.63,-0.53,0.32,-0.76,-0.19
3.0,145.94,29.44,-7.38,145.94,29.44,-7.38,-0.28,0.23,0.13,0.92,2.0,320.56,-68.87,172.56,320.56,-68.87,172.56,-0.53,0.32,-0.76,-0.19
3.0,146.0,29.5,-7.31,146.0,29.5,-7.31,-0.28,0.23,0.13,0.92,2.0,320.5,-68.25,172.88,320.5,-68.25,172.88,-0.53,0.32,-0.76,-0.19
3.0,146.0,29.5,-7.25,146.0,29.5,-7.25,-0.28,0.23,0.13,0.92,2.0,320.25,-67.56,173.38,320.25,-67.56,173.38,-0.52,0.32,-0.77,-0.19
3.0,146.0,29.5,-7.19,146.0,29.5,-7.19,-0.28,0.23,0.13,0.92,2.0,319.88,-67.0,173.94,319.88,-67.0,173.94,-0.52,0.32,-0.77,-0.19
3.0,146.0,29.5,-7.13,146.0,29.5,-7.13,-0.28,0.23,0.13,0.92,2.0,319.5,-66.81,174.25,319.5,-66.81,174.25,-0.52,0.32,-0.77,-0.19
3.0,146.0,29.5,-7.06,146.0,29.5,-7.06,-0.28,0.23,0.13,0.92,2.0,319.19,-67.0,174.44,319.19,-67.0,174.44,-0.52,0.32,-0.77,-0.19
3.0,146.06,29.5,-7.13,146.06,29.5,-7.13,-0.28,0.23,0.13,0.92,2.0,318.94,-67.56,174.5,318.94,-67.56,174.5,-0.52,0.32,-0.76,-0.2
3.0,146.06,29.5,-7.19,146.06,29.5,-7.19,-0.28,0.23,0.13,0.92,2.0,319.0,-68.62,174.19,319.0,-68.62,174.19,-0.53,0.32,-0.76,-0.2
3.0,146.13,29.56,-7.19,146.13,29.56,-7.19,-0.28,0.23,0.13,0.92,2.0,319.31,-69.25,173.94,319.31,-69.25,173.94,-0.53,0.31,-0.76,-0.2
3.0,146.19,29.62,-7.19,146.19,29.62,-7.19,-0.28,0.23,0.13,0.92,2.0,320.13,-69.12,173.81,320.13,-69.12,173.81,-0.53,0.31,-0.76,-0.19
3.0,146.19,29.69,-7.31,146.19,29.69,-7.31,-0.28,0.23,0.13,0.92,2.0,320.88,-69.06,173.56,320.88,-69.06,173.56,-0.54,0.31,-0.76,-0.19
3.0,146.25,29.75,-7.25,146.25,29.75,-7.25,-0.28,0.23,0.13,0.92,2.0,320.56,-69.0,173.63,320.56,-69.0,173.63,-0.53,0.31,-0.76,-0.19
3.0,146.25,29.81,-7.13,146.25,29.81,-7.13,-0.28,0.23,0.13,0.92,2.0,318.69,-67.75,175.88,318.69,-67.75,175.88,-0.52,0.32,-0.77,-0.2
3.0,146.31,29.87,-7.06,146.31,29.87,-7.06,-0.28,0.23,0.13,0.92,2.0,317.5,-67.37,177.38,317.5,-67.37,177.38,-0.52,0.31,-0.77,-0.2
3.0,146.31,30.0,-7.13,146.31,30.0,-7.13,-0.28,0.23,0.13,0.92,2.0,317.88,-67.87,177.25,317.88,-67.87,177.25,-0.52,0.31,-0.77,-0.2
3.0,146.31,30.0,-7.19,146.31,30.0,-7.19,-0.28,0.23,0.13,0.92,2.0,318.31,-69.06,176.75,318.31,-69.06,176.75,-0.53,0.31,-0.76,-0.2
3.0,146.38,29.94,-7.25,146.38,29.94,-7.25,-0.28,0.23,0.13,0.92,2.0,318.56,-70.31,176.38,318.56,-70.31,176.38,-0.54,0.31,-0.76,-0.2
3.0,146.44,29.81,-7.31,146.44,29.81,-7.31,-0.28,0.23,0.13,0.92,2.0,318.88,-71.94,175.94,318.88,-71.94,175.94,-0.55,0.3,-0.75,-0.21
3.0,146.5,29.69,-7.31,146.5,29.69,-7.31,-0.28,0.23,0.13,0.92,2.0,319.13,-73.44,175.25,319.13,-73.44,175.25,-0.56,0.3,-0.74,-0.21
3.0,146.5,29.69,-7.25,146.5,29.69,-7.25,-0.28,0.23,0.13,0.92,2.0,319.0,-74.56,175.13,319.0,-74.56,175.13,-0.57,0.3,-0.74,-0.21
3.0,146.44,29.81,-7.19,146.44,29.81,-7.19,-0.28,0.23,0.13,0.92,2.0,318.94,-75.25,175.0,318.94,-75.25,175.0,-0.57,0.29,-0.73,-0.21
3.0,146.44,29.87,-7.19,146.44,29.87,-7.19,-0.28,0.23,0.13,0.92,2.0,318.94,-75.06,175.25,318.94,-75.06,175.25,-0.57,0.29,-0.74,-0.21
3.0,146.38,30.0,-7.19,146.38,30.0,-7.19,-0.28,0.23,0.13,0.92,2.0,319.0,-74.37,175.63,319.0,-74.37,175.63,-0.57,0.29,-0.74,-0.21
3.0,146.38,30.0,-7.25,146.38,30.0,-7.25,-0.28,0.23,0.13,0.92,2.0,319.13,-74.25,175.81,319.13,-74.25,175.81,-0.57,0.29,-0.74,-0.21
3.0,146.44,29.94,-7.31,146.44,29.94,-7.31,-0.28,0.23,0.13,0.92,2.0,319.31,-74.87,175.56,319.31,-74.87,175.56,-0.57,0.29,-0.74,-0.21
3.0,146.44,29.94,-7.25,146.44,29.94,-7.25,-0.28,0.23,0.13,0.92,2.0,319.31,-75.5,175.38,319.31,-75.5,175.38,-0.57,0.29,-0.74,-0.21
3.0,146.44,29.94,-7.19,146.44,29.94,-7.19,-0.28,0.23,0.13,0.92,2.0,319.25,-75.94,175.38,319.25,-75.94,175.38,-0.58,0.29,-0.73,-0.21
3.0,146.5,29.87,-7.13,146.5,29.87,-7.13,-0.28,0.23,0.13,0.92,2.0,319.25,-76.44,175.63,319.25,-76.44,175.63,-0.58,0.29,-0.73,-0.22
3.0,146.5,29.87,-7.06,146.5,29.87,-7.06,-0.28,0.23,0.13,0.92,2.0,319.25,-77.19,176.0,319.25,-77.19,176.0,-0.59,0.28,-0.73,-0.22
3.0,146.56,29.87,-7.0,146.56,29.87,-7.0,-0.28,0.23,0.13,0.92,2.0,319.19,-77.37,176.19,319.19,-77.37,176.19,-0.59,0.28,-0.73,-0.22
3.0,146.63,29.94,-6.81,146.63,29.94,-6.81,-0.28,0.23,0.13,0.92,2.0,319.13,-77.37,176.69,319.13,-77.37,176.69,-0.59,0.28,-0.73,-0.22
3.0,146.69,30.0,-6.63,146.69,30.0,-6.63,-0.28,0.23,0.12,0.92,2.0,319.25,-77.31,177.56,319.25,-77.31,177.56,-0.59,0.28,-0.73,-0.22
3.0,146.81,30.06,-6.38,146.81,30.06,-6.38,-0.28,0.24,0.12,0.92,2.0,319.19,-77.44,178.0,319.19,-77.44,178.0,-0.59,0.28,-0.73,-0.22
3.0,146.81,30.06,-6.38,146.81,30.06,-6.38,-0.27,0.23,0.12,0.92,2.0,319.06,-77.69,178.13,319.06,-77.69,178.13,-0.59,0.28,-0.73,-0.22
3.0,146.88,30.0,-6.38,146.88,30.0,-6.38,-0.27,0.23,0.12,0.92,2.0,319.0,-77.75,178.69,319.0,-77.75,178.69,-0.59,0.28,-0.73,-0.22
3.0,146.94,30.0,-6.5,146.94,30.0,-6.5,-0.27,0.23,0.12,0.92,2.0,319.13,-78.44,178.81,319.13,-78.44,178.81,-0.6,0.27,-0.72,-0.22
3.0,146.94,30.0,-6.63,146.94,30.0,-6.63,-0.27,0.23,0.12,0.92,2.0,319.25,-79.69,178.88,319.25,-79.69,178.88,-0.6,0.27,-0.72,-0.22
3.0,146.94,30.0,-6.69,146.94,30.0,-6.69,-0.27,0.23,0.12,0.92,2.0,319.44,-80.69,178.75,319.44,-80.69,178.75,-0.61,0.27,-0.71,-0.22
3.0,146.94,30.06,-6.69,146.94,30.06,-6.69,-0.27,0.23,0.12,0.92,2.0,319.38,-81.37,178.31,319.38,-81.37,178.31,-0.61,0.27,-0.71,-0.23
3.0,146.94,30.06,-6.69,146.94,30.06,-6.69,-0.27,0.23,0.12,0.92,2.0,318.94,-82.19,177.56,318.94,-82.19,177.56,-0.62,0.27,-0.7,-0.23
3.0,147.0,30.0,-6.75,147.0,30.0,-6.75,-0.27,0.23,0.12,0.92,2.0,318.31,-82.87,176.0,318.31,-82.87,176.0,-0.62,0.27,-0.7,-0.24
3.0,146.94,30.0,-6.75,146.94,30.0,-6.75,-0.27,0.23,0.12,0.92,2.0,317.56,-83.19,179.38,317.56,-83.19,179.38,-0.62,0.28,-0.69,-0.24
3.0,146.94,29.94,-6.81,146.94,29.94,-6.81,-0.27,0.23,0.13,0.92,2.0,316.94,-83.62,179.19,316.94,-83.62,179.19,-0.62,0.28,-0.69,-0.25
3.0,146.94,29.94,-6.94,146.94,29.94,-6.94,-0.27,0.23,0.13,0.92,2.0,316.31,-84.0,179.13,316.31,-84.0,179.13,-0.62,0.29,-0.68,-0.25
3.0,146.94,29.87,-7.0,146.94,29.87,-7.0,-0.27,0.23,0.13,0.92,2.0,315.81,-84.56,179.0,315.81,-84.56,179.0,-0.63,0.29,-0.68,-0.26
3.0,146.88,29.87,-7.06,146.88,29.87,-7.06,-0.27,0.23,0.13,0.92,2.0,315.13,-85.25,178.81,315.13,-85.25,178.81,-0.63,0.3,-0.67,-0.26
3.0,146.88,29.87,-7.06,146.88,29.87,-7.06,-0.27,0.23,0.13,0.92,2.0,314.38,-85.25,178.75,314.38,-85.25,178.75,-0.62,0.3,-0.67,-0.26
3.0,146.81,29.87,-7.13,146.81,29.87,-7.13,-0.28,0.23,0.13,0.92,2.0,313.69,-85.06,178.69,313.69,-85.06,178.69,-0.62,0.31,-0.67,-0.27
3.0,146.75,29.94,-7.19,146.75,29.94,-7.19,-0.28,0.23,0.13,0.92,2.0,313.06,-84.75,178.56,313.06,-84.75,178.56,-0.62,0.31,-0.67,-0.27
3.0,146.75,29.94,-7.19,146.75,29.94,-7.19,-0.28,0.23,0.13,0.92,2.0,312.06,-83.81,178.69,312.06,-83.81,178.69,-0.61,0.32,-0.67,-0.27
3.0,146.75,29.87,-7.25,146.75,29.87,-7.25,-0.28,0.23,0.13,0.92,2.0,310.75,-83.0,169.63,310.75,-83.0,169.63,-0.6,0.33,-0.67,-0.28
3.0,146.75,29.81,-7.19,146.75,29.81,-7.19,-0.28,0.23,0.13,0.92,2.0,309.13,-81.69,171.88,309.13,-81.69,171.88,-0.59,0.34,-0.68,-0.28
3.0,146.75,29.75,-7.25,146.75,29.75,-7.25,-0.28,0.23,0.13,0.92,2.0,307.38,-80.31,173.13,307.38,-80.31,173.13,-0.58,0.35,-0.68,-0.29
3.0,146.69,29.62,-7.25,146.69,29.62,-7.25,-0.28,0.23,0.13,0.92,2.0,305.31,-79.31,174.63,305.31,-79.31,174.63,-0.57,0.37,-0.68,-0.29
3.0,146.69,29.56,-7.06,146.69,29.56,-7.06,-0.28,0.23,0.13,0.92,2.0,304.13,-78.62,176.56,304.13,-78.62,176.56,-0.56,0.37,-0.68,-0.3
3.0,146.69,29.5,-7.0,146.69,29.5,-7.0,-0.28,0.23,0.13,0.92,2.0,303.19,-77.94,179.13,303.19,-77.94,179.13,-0.55,0.37,-0.68,-0.3
3.0,146.69,29.44,-7.0,146.69,29.44,-7.0,-0.28,0.23,0.13,0.92,2.0,302.81,-77.69,-178.63,302.81,-77.69,-178.63,-0.55,0.37,-0.69,-0.3
3.0,146.75,29.5,-7.19,146.75,29.5,-7.19,-0.28,0.23,0.13,0.92,2.0,303.06,-78.25,-178.56,303.06,-78.25,-178.56,-0.56,0.36,-0.68,-0.3
3.0,146.81,29.5,-7.44,146.81,29.5,-7.44,-0.28,0.23,0.13,0.92,2.0,303.69,-79.44,-179.88,303.69,-79.44,-179.88,-0.57,0.36,-0.68,-0.3
3.0,146.81,29.5,-7.5,146.81,29.5,-7.5,-0.28,0.23,0.13,0.92,2.0,304.25,-80.37,179.56,304.25,-80.37,179.56,-0.57,0.36,-0.67,-0.3
3.0,146.81,29.56,-7.38,146.81,29.56,-7.38,-0.28,0.23,0.13,0.92,2.0,304.88,-81.31,178.88,304.88,-81.31,178.88,-0.58,0.35,-0.67,-0.3
3.0,146.81,29.62,-7.31,146.81,29.62,-7.31,-0.28,0.23,0.13,0.92,2.0,305.31,-82.0,179.13,305.31,-82.0,179.13,-0.59,0.35,-0.67,-0.3
3.0,146.81,29.69,-7.38,146.81,29.69,-7.38,-0.28,0.23,0.13,0.92,2.0,306.06,-83.12,179.75,306.06,-83.12,179.75,-0.6,0.34,-0.66,-0.3
3.0,146.81,29.69,-7.38,146.81,29.69,-7.38,-0.27,0.23,0.13,0.92,2.0,307.38,-85.69,179.19,307.38,-85.69,179.19,-0.62,0.33,-0.65,-0.3
3.0,146.88,29.62,-7.44,146.88,29.62,-7.44,-0.27,0.23,0.13,0.92,2.0,308.38,-86.81,178.81,308.38,-86.81,178.81,-0.62,0.33,-0.65,-0.3
3.0,146.81,29.62,-7.44,146.81,29.62,-7.44,-0.28,0.23,0.13,0.92,2.0,308.81,-86.37,178.69,308.81,-86.37,178.69,-0.62,0.33,-0.65,-0.29
3.0,146.75,29.62,-7.44,146.75,29.62,-7.44,-0.28,0.23,0.13,0.92,2.0,308.88,-85.06,178.75,308.88,-85.06,178.75,-0.61,0.33,-0.66,-0.29
3.0,146.69,29.62,-7.31,146.69,29.62,-7.31,-0.28,0.23,0.13,0.92,2.0,308.88,-83.31,178.88,308.88,-83.31,178.88,-0.6,0.34,-0.67,-0.29
3.0,146.88,29.62,-7.06,146.88,29.62,-7.06,-0.27,0.23,0.13,0.93,2.0,309.06,-81.5,172.25,309.06,-81.5,172.25,-0.59,0.34,-0.68,-0.28
3.0,146.94,29.44,-7.0,146.94,29.44,-7.0,-0.27,0.23,0.13,0.93,2.0,309.06,-79.56,173.56,309.06,-79.56,173.56,-0.57,0.35,-0.69,-0.27
3.0,146.94,29.37,-6.94,146.94,29.37,-6.94,-0.27,0.23,0.12,0.93,2.0,308.81,-77.87,175.25,308.81,-77.87,175.25,-0.56,0.35,-0.7,-0.27
3.0,147.0,29.31,-6.88,147.0,29.31,-6.88,-0.27,0.23,0.12,0.93,2.0,308.88,-76.75,175.56,308.88,-76.75,175.56,-0.56,0.35,-0.7,-0.27
3.0,147.0,29.37,-6.88,147.0,29.37,-6.88,-0.27,0.23,0.12,0.93,2.0,308.88,-76.19,174.81,308.88,-76.19,174.81,-0.56,0.36,-0.7,-0.27
3.0,146.94,29.44,-6.94,146.94,29.44,-6.94,-0.27,0.23,0.13,0.93,2.0,308.38,-75.44,174.31,308.38,-75.44,174.31,-0.55,0.37,-0.7,-0.27
3.0,147.0,29.5,-7.0,147.0,29.5,-7.0,-0.27,0.23,0.13,0.93,2.0,308.81,-74.44,170.0,308.81,-74.44,170.0,-0.55,0.38,-0.7,-0.26
3.0,147.13,29.44,-6.94,147.13,29.44,-6.94,-0.27,0.23,0.12,0.93,2.0,307.75,-72.62,171.06,307.75,-72.62,171.06,-0.53,0.39,-0.71,-0.26
3.0,147.25,29.37,-6.81,147.25,29.37,-6.81,-0.27,0.23,0.12,0.93,2.0,306.13,-71.25,173.13,306.13,-71.25,173.13,-0.52,0.4,-0.71,-0.26
3.0,147.5,29.37,-6.5,147.5,29.37,-6.5,-0.27,0.23,0.12,0.93,2.0,306.06,-70.75,171.75,306.06,-70.75,171.75,-0.52,0.41,-0.71,-0.26
3.0,147.75,29.31,-6.06,147.75,29.31,-6.06,-0.27,0.23,0.12,0.93,2.0,306.38,-70.5,169.81,306.38,-70.5,169.81,-0.52,0.41,-0.7,-0.26
3.0,147.88,29.19,-5.81,147.88,29.19,-5.81,-0.27,0.23,0.11,0.93,2.0,305.75,-70.56,170.19,305.75,-70.56,170.19,-0.52,0.41,-0.7,-0.27
3.0,147.94,29.12,-5.75,147.94,29.12,-5.75,-0.27,0.23,0.11,0.93,2.0,305.06,-70.87,171.0,305.06,-70.87,171.0,-0.52,0.41,-0.7,-0.27
3.0,147.94,29.19,-5.81,147.94,29.19,-5.81,-0.27,0.23,0.11,0.93,2.0,304.44,-71.44,172.19,304.44,-71.44,172.19,-0.52,0.41,-0.7,-0.27
3.0,148.0,29.25,-5.94,148.0,29.25,-5.94,-0.27,0.23,0.12,0.93,2.0,304.19,-71.44,172.94,304.19,-71.44,172.94,-0.52,0.41,-0.7,-0.27
3.0,147.94,29.37,-6.0,147.94,29.37,-6.0,-0.27,0.23,0.12,0.93,2.0,304.13,-71.12,173.19,304.13,-71.12,173.19,-0.52,0.41,-0.7,-0.27
3.0,147.94,29.44,-6.06,147.94,29.44,-6.06,-0.27,0.23,0.12,0.93,2.0,303.75,-70.12,174.44,303.75,-70.12,174.44,-0.51,0.41,-0.71,-0.27
3.0,147.94,29.5,-6.06,147.94,29.5,-6.06,-0.27,0.23,0.12,0.93,2.0,303.44,-69.25,175.63,303.44,-69.25,175.63,-0.5,0.41,-0.71,-0.27
3.0,147.94,29.56,-6.06,147.94,29.56,-6.06,-0.27,0.23,0.12,0.93,2.0,302.88,-68.25,177.5,302.88,-68.25,177.5,-0.49,0.41,-0.72,-0.27
3.0,147.94,29.56,-6.13,147.94,29.56,-6.13,-0.27,0.23,0.12,0.93,2.0,302.38,-67.81,178.88,302.38,-67.81,178.88,-0.49,0.41,-0.72,-0.27
3.0,147.94,29.56,-6.19,147.94,29.56,-6.19,-0.27,0.23,0.12,0.93,2.0,302.19,-67.44,179.56,302.19,-67.44,179.56,-0.49,0.4,-0.73,-0.27
3.0,147.94,29.5,-6.13,147.94,29.5,-6.13,-0.27,0.23,0.12,0.93,2.0,302.0,-67.37,-179.75,302.0,-67.37,-179.75,-0.49,0.4,-0.73,-0.27
3.0,147.94,29.5,-6.0,147.94,29.5,-6.0,-0.27,0.23,0.12,0.93,2.0,301.94,-67.75,-179.44,301.94,-67.75,-179.44,-0.49,0.4,-0.73,-0.27
3.0,147.94,29.5,-5.88,147.94,29.5,-5.88,-0.27,0.23,0.11,0.93,2.0,301.69,-68.06,-178.94,301.69,-68.06,-178.94,-0.49,0.4,-0.73,-0.27
3.0,147.94,29.5,-5.88,147.94,29.5,-5.88,-0.27,0.23,0.12,0.93,2.0,301.44,-68.12,-178.63,301.44,-68.12,-178.63,-0.49,0.4,-0.73,-0.27
3.0,147.94,29.56,-5.94,147.94,29.56,-5.94,-0.27,0.23,0.12,0.93,2.0,301.13,-67.94,-178.19,301.13,-67.94,-178.19,-0.49,0.4,-0.73,-0.27
3.0,147.94,29.56,-6.0,147.94,29.56,-6.0,-0.27,0.23,0.12,0.93,2.0,300.94,-67.81,-178.13,300.94,-67.81,-178.13,-0.49,0.4,-0.73,-0.27
3.0,147.94,29.56,-6.0,147.94,29.56,-6.0,-0.27,0.23,0.12,0.93,2.0,300.88,-67.62,-178.19,300.88,-67.62,-178.19,-0.48,0.4,-0.73,-0.27
3.0,147.88,29.56,-6.0,147.88,29.56,-6.0,-0.27,0.23,0.12,0.93,2.0,300.88,-67.5,-178.5,300.88,-67.5,-178.5,-0.48,0.4,-0.73,-0.27
3.0,147.88,29.56,-5.88,147.88,29.56,-5.88,-0.27,0.23,0.12,0.93,2.0,301.06,-67.75,-178.81,301.06,-67.75,-178.81,-0.49,0.4,-0.73,-0.27
3.0,147.88,29.56,-5.94,147.88,29.56,-5.94,-0.27,0.23,0.12,0.93,2.0,301.13,-67.94,-179.13,301.13,-67.94,-179.13,-0.49,0.4,-0.72,-0.27
3.0,147.88,29.56,-6.06,147.88,29.56,-6.06,-0.27,0.23,0.12,0.93,2.0,300.94,-67.87,-178.88,300.94,-67.87,-178.88,-0.49,0.4,-0.72,-0.28
3.0,147.88,29.56,-6.06,147.88,29.56,-6.06,-0.27,0.23,0.12,0.93,2.0,300.75,-67.81,-178.56,300.75,-67.81,-178.56,-0.49,0.4,-0.73,-0.28
3.0,147.88,29.62,-6.06,147.88,29.62,-6.06,-0.27,0.23,0.12,0.93,2.0,300.75,-68.0,-178.25,300.75,-68.0,-178.25,-0.49,0.4,-0.73,-0.28
3.0,147.88,29.56,-6.06,147.88,29.56,-6.06,-0.27,0.23,0.12,0.93,2.0,300.75,-67.87,-178.13,300.75,-67.87,-178.13,-0.49,0.4,-0.73,-0.28
