Calibration_1,AccX_1,AccY_1,AccZ_1,Roll_1,Pitch_1,Yaw_1,QuatW_1,QuatX_1,QuatY_1,QuatZ_1,Calibration_2,AccX_2,AccY_2,AccZ_2,Roll_2,Pitch_2,Yaw_2,QuatW_2,QuatX_2,QuatY_2,QuatZ_2
0.0,0.0,10.25,9.31,0.0,10.25,9.31,0.99,-0.08,-0.09,0.0,0.0,0.0,0.0,0.0,0.0,0.0,0.0,0.0,0.0,0.0,0.0
0.0,0.0,10.25,9.31,0.0,10.25,9.31,0.99,-0.08,-0.09,0.0,0.0,0.0,0.0,0.0,0.0,0.0,0.0,1.0,0.0,0.0,0.0
0.0,0.0,10.25,9.31,0.0,10.25,9.31,0.99,-0.08,-0.09,0.0,0.0,0.0,0.0,0.0,0.0,0.0,0.0,1.0,0.0,0.0,0.0
0.0,0.0,10.25,9.31,0.0,10.25,9.31,0.99,-0.08,-0.09,0.0,0.0,357.31,41.38,-178.81,357.31,41.38,-178.81,0.35,0.02,-0.94,0.0
0.0,0.0,10.25,9.31,0.0,10.25,9.31,0.99,-0.08,-0.09,0.0,0.0,357.31,41.38,-178.81,357.31,41.38,-178.81,0.35,0.02,-0.94,0.0
0.0,0.0,10.25,9.31,0.0,10.25,9.31,0.99,-0.08,-0.09,0.0,0.0,357.31,41.38,-178.81,357.31,41.38,-178.81,0.35,0.02,-0.94,0.0
0.0,0.0,10.25,9.31,0.0,10.25,9.31,0.99,-0.08,-0.09,0.0,0.0,357.31,41.38,-178.81,357.31,41.38,-178.81,0.35,0.02,-0.94,0.0
0.0,0.0,10.25,9.31,0.0,10.25,9.31,0.99,-0.08,-0.09,0.0,0.0,357.31,41.38,-178.81,357.31,41.38,-178.81,0.35,0.02,-0.94,0.0
0.0,0.0,10.25,9.31,0.0,10.25,9.31,0.99,-0.08,-0.09,0.0,0.0,357.31,41.44,-178.81,357.31,41.44,-178.81,0.35,0.02,-0.94,0.0
0.0,0.0,10.25,9.31,0.0,10.25,9.31,0.99,-0.08,-0.09,0.0,0.0,357.31,41.44,-178.81,357.31,41.44,-178.81,0.35,0.02,-0.94,0.0
0.0,0.0,10.25,9.31,0.0,10.25,9.31,0.99,-0.08,-0.09,0.0,0.0,357.31,41.38,-178.81,357.31,41.38,-178.81,0.35,0.02,-0.94,0.0
0.0,0.0,10.25,9.31,0.0,10.25,9.31,0.99,-0.08,-0.09,0.0,0.0,357.31,41.38,-178.81,357.31,41.38,-178.81,0.35,0.02,-0.94,0.0
0.0,0.0,10.25,9.31,0.0,10.25,9.31,0.99,-0.08,-0.09,0.0,0.0,357.31,41.44,-178.81,357.31,41.44,-178.81,0.35,0.02,-0.93,0.0
0.0,0.0,10.25,9.31,0.0,10.25,9.31,0.99,-0.08,-0.09,0.0,0.0,357.31,41.44,-178.81,357.31,41.44,-178.81,0.35,0.02,-0.93,0.0
0.0,0.0,10.25,9.31,0.0,10.25,9.31,0.99,-0.08,-0.09,0.0,0.0,357.31,41.44,-178.81,357.31,41.44,-178.81,0.35,0.02,-0.94,0.0
0.0,0.0,10.25,9.31,0.0,10.25,9.31,0.99,-0.08,-0.09,0.0,0.0,357.31,41.44,-178.81,357.31,41.44,-178.81,0.35,0.02,-0.94,0.0
0.0,0.0,10.25,9.31,0.0,10.25,9.31,0.99,-0.08,-0.09,0.0,0.0,357.31,41.44,-178.81,357.31,41.44,-178.81,0.35,0.02,-0.94,0.0
0.0,0.0,10.25,9.31,0.0,10.25,9.31,0.99,-0.08,-0.09,0.0,0.0,357.31,41.44,-178.81,357.31,41.44,-178.81,0.35,0.02,-0.93,0.0
0.0,0.0,10.25,9.31,0.0,10.25,9.31,0.99,-0.08,-0.09,0.0,0.0,357.31,41.44,-178.81,357.31,41.44,-178.81,0.35,0.02,-0.93,0.0
0.0,0.0,10.25,9.31,0.0,10.25,9.31,0.99,-0.08,-0.09,0.0,0.0,357.31,41.44,-178.81,357.31,41.44,-178.81,0.35,0.02,-0.93,0.0
0.0,0.0,10.25,9.31,0.0,10.25,9.31,0.99,-0.08,-0.09,0.0,0.0,357.31,41.44,-178.81,357.31,41.44,-178.81,0.35,0.02,-0.93,0.0
0.0,0.0,10.25,9.31,0.0,10.25,9.31,0.99,-0.08,-0.09,0.0,0.0,357.31,41.44,-178.81,357.31,41.44,-178.81,0.35,0.02,-0.93,0.0
0.0,0.0,10.25,9.31,0.0,10.25,9.31,0.99,-0.08,-0.09,0.0,0.0,357.31,41.38,-178.81,357.31,41.38,-178.81,0.35,0.02,-0.94,0.0
0.0,0.0,10.25,9.31,0.0,10.25,9.31,0.99,-0.08,-0.09,0.0,0.0,357.31,41.44,-178.81,357.31,41.44,-178.81,0.35,0.02,-0.94,-0.0
0.0,0.0,10.25,9.31,0.0,10.25,9.31,0.99,-0.08,-0.09,0.0,0.0,357.31,41.44,-178.81,357.31,41.44,-178.81,0.35,0.02,-0.93,0.0
0.0,0.0,10.25,9.31,0.0,10.25,9.31,0.99,-0.08,-0.09,0.0,0.0,357.38,41.44,-178.88,357.38,41.44,-178.88,0.35,0.02,-0.93,0.0
0.0,0.0,10.25,9.31,0.0,10.25,9.31,0.99,-0.08,-0.09,0.0,0.0,357.31,41.38,-178.75,357.31,41.38,-178.75,0.35,0.02,-0.94,-0.0
0.0,0.0,10.25,9.31,0.0,10.25,9.31,0.99,-0.08,-0.09,0.0,0.0,357.31,41.38,-178.75,357.31,41.38,-178.75,0.35,0.02,-0.93,-0.0
0.0,0.0,10.25,9.31,0.0,10.25,9.31,0.99,-0.08,-0.09,0.0,0.0,357.38,41.5,-178.88,357.38,41.5,-178.88,0.35,0.02,-0.93,0.0
0.0,0.0,10.25,9.31,0.0,10.25,9.31,0.99,-0.08,-0.09,0.0,0.0,357.38,41.5,-178.88,357.38,41.5,-178.88,0.35,0.02,-0.93,0.0
0.0,0.0,10.25,9.31,0.0,10.25,9.31,0.99,-0.08,-0.09,0.0,0.0,357.31,41.38,-178.75,357.31,41.38,-178.75,0.35,0.02,-0.94,-0.0
0.0,0.0,10.25,9.31,0.0,10.25,9.31,0.99,-0.08,-0.09,0.0,0.0,357.31,41.38,-178.75,357.31,41.38,-178.75,0.35,0.02,-0.93,-0.0
0.0,0.0,10.25,9.31,0.0,10.25,9.31,0.99,-0.08,-0.09,0.0,0.0,357.38,41.5,-178.81,357.38,41.5,-178.81,0.35,0.02,-0.93,0.0
0.0,0.0,10.25,9.31,0.0,10.25,9.31,0.99,-0.08,-0.09,0.0,0.0,357.38,41.5,-178.88,357.38,41.5,-178.88,0.35,0.02,-0.93,-0.0
0.0,0.0,10.25,9.31,0.0,10.25,9.31,0.99,-0.08,-0.09,0.0,0.0,357.31,41.38,-178.75,357.31,41.38,-178.75,0.35,0.02,-0.94,-0.0
0.0,0.0,10.25,9.31,0.0,10.25,9.31,0.99,-0.08,-0.09,0.0,0.0,357.31,41.44,-178.75,357.31,41.44,-178.75,0.35,0.02,-0.93,-0.0
0.0,0.0,10.25,9.31,0.0,10.25,9.31,0.99,-0.08,-0.09,0.0,0.0,357.38,41.44,-178.81,357.38,41.44,-178.81,0.35,0.02,-0.93,-0.0
0.0,0.0,10.25,9.31,0.0,10.25,9.31,0.99,-0.08,-0.09,0.0,0.0,357.31,41.5,-178.75,357.31,41.5,-178.75,0.35,0.02,-0.93,-0.0
0.0,0.0,10.25,9.31,0.0,10.25,9.31,0.99,-0.08,-0.09,0.0,0.0,357.31,41.44,-178.75,357.31,41.44,-178.75,0.35,0.02,-0.93,-0.0
0.0,0.0,10.25,9.31,0.0,10.25,9.31,0.99,-0.08,-0.09,0.0,0.0,357.31,41.44,-178.75,357.31,41.44,-178.75,0.35,0.02,-0.93,-0.0
0.0,0.0,10.25,9.31,0.0,10.25,9.31,0.99,-0.08,-0.09,0.0,0.0,357.31,41.44,-178.75,357.31,41.44,-178.75,0.35,0.02,-0.93,-0.0
0.0,0.0,10.25,9.31,0.0,10.25,9.31,0.99,-0.08,-0.09,0.0,0.0,357.31,41.5,-178.75,357.31,41.5,-178.75,0.35,0.02,-0.93,-0.0
0.0,0.0,10.25,9.31,0.0,10.25,9.31,0.99,-0.08,-0.09,0.0,0.0,357.31,41.5,-178.75,357.31,41.5,-178.75,0.35,0.02,-0.93,-0.0
0.0,0.0,10.25,9.31,0.0,10.25,9.31,0.99,-0.08,-0.09,0.0,0.0,357.31,41.5,-178.75,357.31,41.5,-178.75,0.35,0.02,-0.93,-0.0
0.0,0.0,10.25,9.31,0.0,10.25,9.31,0.99,-0.08,-0.09,0.0,0.0,357.31,41.5,-178.75,357.31,41.5,-178.75,0.35,0.02,-0.93,-0.0
0.0,0.0,10.25,9.31,0.0,10.25,9.31,0.99,-0.08,-0.09,0.0,0.0,357.31,41.5,-178.75,357.31,41.5,-178.75,0.35,0.02,-0.93,-0.0
0.0,0.0,10.25,9.31,0.0,10.25,9.31,0.99,-0.08,-0.09,0.0,0.0,357.31,41.5,-178.75,357.31,41.5,-178.75,0.35,0.02,-0.93,-0.0
0.0,0.0,10.25,9.31,0.0,10.25,9.31,0.99,-0.08,-0.09,0.0,0.0,357.31,41.44,-178.75,357.31,41.44,-178.75,0.35,0.02,-0.93,-0.0
0.0,0.0,10.25,9.31,0.0,10.25,9.31,0.99,-0.08,-0.09,0.0,0.0,357.31,41.5,-178.75,357.31,41.5,-178.75,0.35,0.02,-0.93,-0.0
0.0,0.0,10.25,9.31,0.0,10.25,9.31,0.99,-0.08,-0.09,0.0,0.0,357.31,41.5,-178.75,357.31,41.5,-178.75,0.35,0.02,-0.93,-0.0
0.0,0.0,10.25,9.31,0.0,10.25,9.31,0.99,-0.08,-0.09,0.0,0.0,357.31,41.5,-178.75,357.31,41.5,-178.75,0.35,0.02,-0.93,-0.0
0.0,0.0,10.25,9.31,0.0,10.25,9.31,0.99,-0.08,-0.09,0.0,0.0,357.31,41.5,-178.75,357.31,41.5,-178.75,0.35,0.02,-0.93,-0.0
0.0,0.0,10.25,9.31,0.0,10.25,9.31,0.99,-0.08,-0.09,0.0,0.0,357.31,41.5,-178.75,357.31,41.5,-178.75,0.35,0.02,-0.93,-0.0
0.0,0.0,10.25,9.31,0.0,10.25,9.31,0.99,-0.08,-0.09,0.0,0.0,357.31,41.5,-178.75,357.31,41.5,-178.75,0.35,0.02,-0.93,-0.0
0.0,0.0,10.25,9.31,0.0,10.25,9.31,0.99,-0.08,-0.09,0.0,0.0,357.25,41.5,-178.69,357.25,41.5,-178.69,0.35,0.02,-0.93,-0.0
0.0,0.0,10.25,9.31,0.0,10.25,9.31,0.99,-0.08,-0.09,0.0,0.0,357.25,41.5,-178.69,357.25,41.5,-178.69,0.35,0.02,-0.93,-0.0
0.0,0.0,10.25,9.31,0.0,10.25,9.31,0.99,-0.08,-0.09,0.0,0.0,357.25,41.5,-178.69,357.25,41.5,-178.69,0.35,0.02,-0.93,-0.0
0.0,0.0,10.25,9.31,0.0,10.25,9.31,0.99,-0.08,-0.09,0.0,0.0,357.25,41.5,-178.69,357.25,41.5,-178.69,0.35,0.02,-0.93,-0.0
0.0,0.0,10.25,9.31,0.0,10.25,9.31,0.99,-0.08,-0.09,0.0,0.0,357.25,41.5,-178.69,357.25,41.5,-178.69,0.35,0.02,-0.93,-0.0
0.0,0.0,10.25,9.31,0.0,10.25,9.31,0.99,-0.08,-0.09,0.0,0.0,357.25,41.5,-178.69,357.25,41.5,-178.69,0.35,0.02,-0.93,-0.0
0.0,0.0,10.25,9.31,0.0,10.25,9.31,0.99,-0.08,-0.09,0.0,0.0,357.25,41.5,-178.69,357.25,41.5,-178.69,0.35,0.02,-0.93,-0.0
0.0,0.0,10.25,9.31,0.0,10.25,9.31,0.99,-0.08,-0.09,0.0,0.0,357.25,41.5,-178.69,357.25,41.5,-178.69,0.35,0.02,-0.93,-0.0
0.0,0.0,10.25,9.31,0.0,10.25,9.31,0.99,-0.08,-0.09,0.0,0.0,357.25,41.5,-178.69,357.25,41.5,-178.69,0.35,0.02,-0.93,-0.0
0.0,0.0,10.25,9.31,0.0,10.25,9.31,0.99,-0.08,-0.09,0.0,0.0,357.25,41.5,-178.69,357.25,41.5,-178.69,0.35,0.02,-0.93,-0.0
0.0,0.0,10.25,9.31,0.0,10.25,9.31,0.99,-0.08,-0.09,0.0,0.0,357.25,41.5,-178.69,357.25,41.5,-178.69,0.35,0.02,-0.93,-0.0
0.0,0.0,10.25,9.31,0.0,10.25,9.31,0.99,-0.08,-0.09,0.0,0.0,357.25,41.5,-178.69,357.25,41.5,-178.69,0.35,0.02,-0.93,-0.0
0.0,0.0,10.25,9.31,0.0,10.25,9.31,0.99,-0.08,-0.09,0.0,0.0,357.25,41.5,-178.69,357.25,41.5,-178.69,0.35,0.02,-0.93,-0.0
0.0,0.0,10.25,9.31,0.0,10.25,9.31,0.99,-0.08,-0.09,0.0,0.0,357.25,41.5,-178.69,357.25,41.5,-178.69,0.35,0.02,-0.93,-0.0
0.0,0.0,10.25,9.31,0.0,10.25,9.31,0.99,-0.08,-0.09,0.0,0.0,357.25,41.5,-178.69,357.25,41.5,-178.69,0.35,0.02,-0.93,-0.0
0.0,0.0,10.25,9.31,0.0,10.25,9.31,0.99,-0.08,-0.09,0.0,0.0,357.25,41.5,-178.69,357.25,41.5,-178.69,0.35,0.02,-0.93,-0.0
0.0,0.0,10.25,9.31,0.0,10.25,9.31,0.99,-0.08,-0.09,0.0,0.0,357.25,41.5,-178.69,357.25,41.5,-178.69,0.35,0.02,-0.93,-0.0
0.0,359.69,10.44,9.0,359.69,10.44,9.0,0.99,-0.08,-0.1,0.0,0.0,357.25,41.5,-178.69,357.25,41.5,-178.69,0.35,0.02,-0.93,-0.0
0.0,0.12,11.75,8.13,0.12,11.75,8.13,0.99,-0.07,-0.11,-0.01,0.0,357.25,41.63,-178.75,357.25,41.63,-178.75,0.36,0.02,-0.93,0.0
0.0,1.37,13.69,6.56,1.37,13.69,6.56,0.99,-0.05,-0.12,-0.01,0.0,357.31,41.75,-178.88,357.31,41.75,-178.88,0.36,0.02,-0.93,0.0
0.0,0.56,15.81,5.06,0.56,15.81,5.06,0.99,-0.04,-0.14,-0.0,0.0,357.31,41.81,-178.94,357.31,41.81,-178.94,0.36,0.02,-0.93,0.0
0.0,0.25,16.69,4.56,0.25,16.69,4.56,0.99,-0.04,-0.15,-0.0,0.0,357.25,41.75,-178.94,357.25,41.75,-178.94,0.36,0.02,-0.93,0.0
0.0,0.31,16.5,4.56,0.31,16.5,4.56,0.99,-0.04,-0.14,-0.0,0.0,357.25,41.75,-178.88,357.25,41.75,-178.88,0.36,0.02,-0.93,0.0
0.0,0.69,15.5,5.56,0.69,15.5,5.56,0.99,-0.05,-0.14,-0.01,0.0,357.0,41.94,-178.88,357.0,41.94,-178.88,0.36,0.02,-0.93,0.0
0.0,2.0,15.25,7.0,2.0,15.25,7.0,0.99,-0.06,-0.13,-0.02,0.0,356.69,42.25,-179.31,356.69,42.25,-179.31,0.36,0.03,-0.93,0.01
0.0,4.94,14.94,7.06,4.94,14.94,7.06,0.99,-0.07,-0.13,-0.04,0.0,356.38,42.88,-179.81,356.38,42.88,-179.81,0.37,0.03,-0.93,0.01
0.0,6.5,13.69,8.25,6.5,13.69,8.25,0.99,-0.08,-0.1,-0.05,0.0,357.0,43.38,179.25,357.0,43.38,179.25,0.37,0.02,-0.93,0.01
0.0,8.75,7.75,9.5,8.75,7.75,9.5,0.99,-0.09,-0.04,-0.09,0.0,357.06,43.31,179.25,357.06,43.31,179.25,0.37,0.02,-0.93,0.01
0.0,11.81,-1.56,11.44,11.81,-1.56,11.44,0.99,-0.1,0.05,-0.1,0.0,356.81,42.69,-179.88,356.81,42.69,-179.88,0.36,0.03,-0.93,0.01
0.0,10.81,-9.44,14.94,10.81,-9.44,14.94,0.98,-0.14,0.11,-0.08,0.0,356.75,41.75,-179.19,356.75,41.75,-179.19,0.36,0.03,-0.93,0.0
0.0,4.56,-14.81,22.81,4.56,-14.81,22.81,0.96,-0.22,0.15,-0.03,0.0,356.5,41.31,-178.81,356.5,41.31,-178.81,0.35,0.03,-0.94,0.0
0.0,0.12,-18.31,33.63,0.12,-18.31,33.63,0.94,-0.3,0.18,0.02,0.0,356.94,41.38,-179.0,356.94,41.38,-179.0,0.35,0.03,-0.93,0.0
0.0,355.94,-21.75,40.0,355.94,-21.75,40.0,0.92,-0.33,0.19,0.03,0.0,356.69,41.63,-179.0,356.69,41.63,-179.0,0.36,0.03,-0.93,0.0
0.0,356.25,-23.0,40.06,356.25,-23.0,40.06,0.92,-0.32,0.2,0.02,0.0,356.81,41.94,-179.25,356.81,41.94,-179.25,0.36,0.02,-0.93,0.01
0.0,0.0,-22.5,37.5,0.0,-22.5,37.5,0.93,-0.29,0.21,-0.01,0.0,357.06,42.06,-179.5,357.06,42.06,-179.5,0.36,0.02,-0.93,0.01
0.0,3.31,-20.94,36.44,3.31,-20.94,36.44,0.93,-0.3,0.19,-0.03,0.0,356.81,41.88,-179.19,356.81,41.88,-179.19,0.36,0.03,-0.93,0.0
0.0,4.31,-17.94,41.25,4.31,-17.94,41.25,0.92,-0.36,0.17,-0.03,0.0,356.69,41.81,-179.06,356.69,41.81,-179.06,0.36,0.03,-0.93,0.0
0.0,1.88,-17.25,51.06,1.88,-17.25,51.06,0.88,-0.44,0.17,-0.01,0.0,357.69,40.94,-178.0,357.69,40.94,-178.0,0.34,0.01,-0.94,-0.01
0.0,2.81,-15.31,61.69,2.81,-15.31,61.69,0.84,-0.52,0.17,-0.02,0.0,0.94,36.44,-175.94,0.94,36.44,-175.94,0.3,-0.0,-0.95,-0.04
0.0,4.75,-11.31,69.94,4.75,-11.31,69.94,0.81,-0.57,0.12,-0.04,0.0,357.94,30.0,-172.31,357.94,30.0,-172.31,0.24,0.04,-0.97,-0.07
0.0,4.88,-5.94,73.56,4.88,-5.94,73.56,0.81,-0.59,0.06,-0.05,0.0,351.06,19.06,-168.81,351.06,19.06,-168.81,0.14,0.07,-0.98,-0.09
0.0,14.69,3.38,75.62,14.69,3.38,75.62,0.77,-0.63,0.07,-0.09,0.0,357.44,12.63,-167.13,357.44,12.63,-167.13,0.11,0.0,-0.99,-0.12
0.0,14.94,-2.13,82.81,14.94,-2.13,82.81,0.74,-0.65,0.11,-0.1,0.0,358.94,13.63,-160.56,358.94,13.63,-160.56,0.14,0.01,-0.97,-0.19
0.0,21.0,1.44,83.62,21.0,1.44,83.62,0.73,-0.66,0.1,-0.14,0.0,357.88,20.19,-151.69,357.88,20.19,-151.69,0.21,0.03,-0.94,-0.25
0.0,24.5,7.13,81.06,24.5,7.13,81.06,0.74,-0.65,0.06,-0.16,0.0,96.62,26.44,-141.13,96.62,26.44,-141.13,0.26,0.05,-0.92,-0.29
0.0,25.75,13.44,78.5,25.75,13.44,78.5,0.75,-0.64,-0.01,-0.17,0.0,81.94,33.13,-137.81,81.94,33.13,-137.81,0.33,0.07,-0.9,-0.29
0.0,27.87,21.62,76.31,27.87,21.62,76.31,0.76,-0.62,-0.09,-0.19,0.0,58.75,44.13,-141.31,58.75,44.13,-141.31,0.41,0.05,-0.88,-0.23
0.0,24.87,21.62,76.19,24.87,21.62,76.19,0.77,-0.61,-0.1,-0.16,0.0,50.88,50.13,-139.94,50.88,50.13,-139.94,0.47,0.04,-0.85,-0.22
0.0,24.0,22.0,74.62,24.0,22.0,74.62,0.77,-0.59,-0.13,-0.18,0.0,49.75,54.31,-132.88,49.75,54.31,-132.88,0.5,0.04,-0.83,-0.25
0.0,31.75,27.62,70.56,31.75,27.62,70.56,0.77,-0.58,-0.13,-0.23,0.0,55.38,54.25,-126.56,55.38,54.25,-126.56,0.51,0.02,-0.81,-0.27
0.0,36.94,27.5,69.31,36.94,27.5,69.31,0.77,-0.58,-0.1,-0.27,0.0,57.19,57.75,-121.69,57.19,57.75,-121.69,0.53,-0.02,-0.79,-0.29
0.0,42.81,27.19,68.44,42.81,27.19,68.44,0.75,-0.58,-0.07,-0.31,0.0,58.63,61.69,-118.94,58.63,61.69,-118.94,0.53,-0.07,-0.78,-0.31
0.0,45.63,26.19,69.75,45.63,26.19,69.75,0.74,-0.59,-0.04,-0.31,0.0,63.81,61.69,-125.25,63.81,61.69,-125.25,0.5,-0.14,-0.8,-0.32
0.0,44.56,24.37,78.87,44.56,24.37,78.87,0.68,-0.67,-0.01,-0.28,0.0,71.12,58.06,-135.88,71.12,58.06,-135.88,0.42,-0.19,-0.82,-0.33
0.0,46.56,19.94,95.44,46.56,19.94,95.44,0.59,-0.76,0.08,-0.27,0.0,85.25,50.13,-140.75,85.25,50.13,-140.75,0.34,-0.24,-0.84,-0.34
0.0,57.25,15.06,104.87,57.25,15.06,104.87,0.52,-0.76,0.22,-0.33,0.0,98.12,43.38,-142.31,98.12,43.38,-142.31,0.29,-0.26,-0.85,-0.35
0.0,83.06,19.44,99.5,83.06,19.44,99.5,0.47,-0.67,0.31,-0.49,0.0,102.25,43.63,-141.63,102.25,43.63,-141.63,0.3,-0.28,-0.83,-0.37
0.0,111.19,25.5,84.94,111.19,25.5,84.94,0.38,-0.55,0.35,-0.66,0.0,99.75,47.56,-140.63,99.75,47.56,-140.63,0.32,-0.3,-0.82,-0.37
0.0,135.94,28.0,74.81,135.94,28.0,74.81,0.25,-0.45,0.41,-0.75,0.0,96.75,48.69,-143.44,96.75,48.69,-143.44,0.31,-0.31,-0.82,-0.36
0.0,152.0,25.19,71.94,152.0,25.19,71.94,0.18,-0.36,0.47,-0.79,0.0,100.94,45.75,-145.44,100.94,45.75,-145.44,0.29,-0.34,-0.82,-0.36
0.0,160.63,27.37,64.56,160.63,27.37,64.56,0.12,-0.36,0.4,-0.83,0.0,107.06,45.25,-144.63,107.06,45.25,-144.63,0.26,-0.36,-0.81,-0.38
0.0,163.69,32.38,54.38,163.69,32.38,54.38,0.12,-0.37,0.32,-0.86,0.0,116.69,43.06,-141.63,116.69,43.06,-141.63,0.23,-0.37,-0.8,-0.4
0.0,168.94,38.75,44.31,168.94,38.75,44.31,0.07,-0.39,0.27,-0.88,0.0,124.25,41.25,-137.88,124.25,41.25,-137.88,0.22,-0.37,-0.8,-0.43
0.0,174.63,40.44,47.31,174.63,40.44,47.31,0.02,-0.39,0.33,-0.86,0.0,127.12,42.5,-131.69,127.12,42.5,-131.69,0.23,-0.35,-0.78,-0.47
0.0,182.0,41.5,55.19,182.0,41.5,55.19,-0.04,-0.39,0.39,-0.83,0.0,128.38,44.06,-122.25,128.38,44.06,-122.25,0.25,-0.31,-0.76,-0.51
0.0,192.13,48.38,66.75,192.13,48.38,66.75,-0.09,-0.44,0.47,-0.76,0.0,127.75,44.75,-113.62,127.75,44.75,-113.62,0.27,-0.28,-0.75,-0.54
0.0,193.56,44.0,96.06,193.56,44.0,96.06,-0.07,-0.45,0.63,-0.63,0.0,125.75,44.56,-110.69,125.75,44.56,-110.69,0.28,-0.26,-0.75,-0.54
0.0,191.19,38.75,116.81,191.19,38.75,116.81,-0.03,-0.52,0.66,-0.55,0.0,125.94,43.5,-108.0,125.94,43.5,-108.0,0.28,-0.23,-0.74,-0.57
0.0,171.5,35.06,121.44,171.5,35.06,121.44,0.07,-0.62,0.57,-0.54,0.0,129.25,41.31,-97.56,129.25,41.31,-97.56,0.3,-0.19,-0.69,-0.63
0.0,155.0,37.13,118.31,155.0,37.13,118.31,0.14,-0.67,0.49,-0.54,0.0,129.81,38.5,-85.12,129.81,38.5,-85.12,0.31,-0.14,-0.65,-0.67
0.0,142.0,29.31,117.69,142.0,29.31,117.69,0.2,-0.64,0.54,-0.51,0.0,130.13,33.06,-78.25,130.13,33.06,-78.25,0.33,-0.07,-0.63,-0.7
0.0,132.06,23.69,111.12,132.06,23.69,111.12,0.25,-0.6,0.52,-0.55,0.0,128.44,27.44,-75.75,128.44,27.44,-75.75,0.35,-0.01,-0.62,-0.7
0.0,129.13,21.31,102.75,129.13,21.31,102.75,0.29,-0.55,0.54,-0.57,0.0,127.37,23.81,-76.12,127.37,23.81,-76.12,0.35,0.02,-0.62,-0.7
0.0,121.37,13.63,101.06,121.37,13.63,101.06,0.32,-0.52,0.57,-0.54,0.0,133.25,18.19,-76.31,133.25,18.19,-76.31,0.31,0.05,-0.62,-0.72
0.0,110.19,5.06,103.19,110.19,5.06,103.19,0.37,-0.5,0.6,-0.5,0.0,133.31,15.44,-77.81,133.31,15.44,-77.81,0.31,0.08,-0.63,-0.71
0.0,105.25,3.06,101.69,105.25,3.06,101.69,0.4,-0.51,0.58,-0.5,0.0,124.62,16.69,-82.94,124.62,16.69,-82.94,0.35,0.13,-0.65,-0.66
0.0,95.81,1.81,96.75,95.81,1.81,96.75,0.47,-0.52,0.51,-0.49,0.0,118.31,16.87,-85.62,118.31,16.87,-85.62,0.38,0.16,-0.66,-0.63
0.0,90.19,5.0,88.19,90.19,5.0,88.19,0.51,-0.53,0.45,-0.51,0.0,113.94,17.06,-83.94,113.94,17.06,-83.94,0.4,0.18,-0.65,-0.62
0.0,87.94,7.81,82.31,87.94,7.81,82.31,0.54,-0.53,0.39,-0.52,0.0,107.81,20.06,-80.5,107.81,20.06,-80.5,0.45,0.18,-0.63,-0.61
0.0,82.06,8.63,85.69,82.06,8.63,85.69,0.55,-0.57,0.36,-0.48,0.0,106.0,22.25,-77.37,106.0,22.25,-77.37,0.47,0.14,-0.6,-0.63
0.0,77.31,8.0,90.69,77.31,8.0,90.69,0.55,-0.61,0.36,-0.44,0.0,110.56,22.81,-70.5,110.56,22.81,-70.5,0.46,0.09,-0.57,-0.68
0.0,77.75,7.5,94.25,77.75,7.5,94.25,0.53,-0.63,0.38,-0.43,0.0,112.0,24.56,-64.94,112.0,24.56,-64.94,0.48,0.06,-0.54,-0.69
0.0,78.56,7.88,96.94,78.56,7.88,96.94,0.51,-0.65,0.39,-0.41,0.0,106.81,27.56,-59.75,106.81,27.56,-59.75,0.52,0.04,-0.51,-0.68
0.0,78.62,8.56,101.56,78.62,8.56,101.56,0.48,-0.68,0.39,-0.4,0.0,103.56,30.25,-53.94,103.56,30.25,-53.94,0.54,0.0,-0.5,-0.68
0.0,82.56,10.63,105.75,82.56,10.63,105.75,0.44,-0.69,0.41,-0.4,0.0,106.81,34.44,-55.19,106.81,34.44,-55.19,0.51,-0.03,-0.51,-0.69
0.0,90.5,12.06,109.5,90.5,12.06,109.5,0.39,-0.68,0.45,-0.42,0.0,112.44,39.0,-63.06,112.44,39.0,-63.06,0.46,-0.08,-0.56,-0.68
0.0,103.87,16.37,108.81,103.87,16.37,108.81,0.35,-0.65,0.46,-0.49,0.0,116.62,42.44,-72.44,116.62,42.44,-72.44,0.41,-0.13,-0.61,-0.67
0.0,114.75,20.87,102.25,114.75,20.87,102.25,0.35,-0.61,0.45,-0.56,0.0,120.0,44.5,-80.87,120.0,44.5,-80.87,0.37,-0.17,-0.64,-0.65
0.0,118.75,24.62,91.19,118.75,24.62,91.19,0.35,-0.58,0.38,-0.63,0.0,122.62,46.31,-89.31,122.62,46.31,-89.31,0.34,-0.21,-0.67,-0.62
0.0,126.94,31.87,81.44,126.94,31.87,81.44,0.32,-0.56,0.34,-0.69,0.0,125.12,47.13,-97.81,125.12,47.13,-97.81,0.31,-0.25,-0.69,-0.6
0.0,137.56,34.56,79.12,137.56,34.56,79.12,0.25,-0.53,0.39,-0.71,0.0,123.81,48.75,-104.94,123.81,48.75,-104.94,0.3,-0.28,-0.71,-0.57
0.0,145.75,31.25,82.19,145.75,31.25,82.19,0.2,-0.5,0.45,-0.71,0.0,124.5,49.19,-108.94,124.5,49.19,-108.94,0.29,-0.31,-0.72,-0.56
0.0,150.69,33.81,88.62,150.69,33.81,88.62,0.18,-0.54,0.47,-0.67,0.0,130.94,47.38,-108.12,130.94,47.38,-108.12,0.26,-0.32,-0.71,-0.57
0.0,147.81,33.75,99.0,147.81,33.75,99.0,0.18,-0.59,0.48,-0.62,0.0,135.06,47.13,-102.81,135.06,47.13,-102.81,0.25,-0.33,-0.69,-0.6
0.0,147.5,32.44,106.94,147.5,32.44,106.94,0.17,-0.6,0.52,-0.58,0.0,135.31,47.75,-98.06,135.31,47.75,-98.06,0.26,-0.32,-0.67,-0.62
0.0,144.75,28.5,112.44,144.75,28.5,112.44,0.18,-0.61,0.56,-0.53,0.0,135.56,47.56,-96.81,135.56,47.56,-96.81,0.26,-0.32,-0.66,-0.63
0.0,134.5,22.0,118.44,134.5,22.0,118.44,0.21,-0.64,0.58,-0.47,0.0,137.06,46.44,-96.0,137.06,46.44,-96.0,0.25,-0.31,-0.66,-0.64
0.0,124.81,17.31,121.62,124.81,17.31,121.62,0.25,-0.64,0.59,-0.43,0.0,139.81,44.56,-92.5,139.81,44.56,-92.5,0.24,-0.29,-0.65,-0.66
0.0,113.19,12.94,118.87,113.19,12.94,118.87,0.31,-0.64,0.56,-0.43,0.0,142.88,41.56,-85.12,142.88,41.56,-85.12,0.23,-0.27,-0.63,-0.69
0.0,101.56,10.38,111.0,101.56,10.38,111.0,0.39,-0.63,0.51,-0.44,0.0,143.31,38.94,-82.12,143.31,38.94,-82.12,0.24,-0.22,-0.62,-0.71
0.0,91.06,7.25,102.87,91.06,7.25,102.87,0.46,-0.61,0.47,-0.44,0.0,140.56,35.25,-79.31,140.56,35.25,-79.31,0.26,-0.16,-0.63,-0.71
0.0,81.37,3.88,97.31,81.37,3.88,97.31,0.52,-0.6,0.44,-0.42,0.0,137.19,30.81,-79.31,137.19,30.81,-79.31,0.28,-0.09,-0.64,-0.71
0.0,73.87,1.12,93.31,73.87,1.12,93.31,0.57,-0.59,0.41,-0.41,0.0,134.75,25.5,-80.75,134.75,25.5,-80.75,0.29,-0.01,-0.66,-0.69
0.0,69.31,2.25,85.56,69.31,2.25,85.56,0.62,-0.57,0.34,-0.43,0.0,130.06,21.0,-84.87,130.06,21.0,-84.87,0.32,0.07,-0.69,-0.65
0.0,68.87,6.81,76.69,68.87,6.81,76.69,0.65,-0.55,0.26,-0.45,0.0,118.44,21.31,-92.37,118.44,21.31,-92.37,0.37,0.14,-0.72,-0.57
0.0,70.37,12.44,72.19,70.37,12.44,72.19,0.66,-0.55,0.21,-0.46,0.0,105.31,25.12,-95.5,105.31,25.12,-95.5,0.43,0.16,-0.71,-0.53
0.0,69.19,15.38,73.56,69.19,15.38,73.56,0.66,-0.57,0.19,-0.45,0.0,99.5,28.0,-89.81,99.5,28.0,-89.81,0.46,0.14,-0.69,-0.54
0.0,68.87,18.19,78.31,68.87,18.19,78.31,0.64,-0.61,0.17,-0.44,0.0,97.69,30.31,-90.25,97.69,30.31,-90.25,0.46,0.13,-0.7,-0.53
0.0,71.75,20.56,84.56,71.75,20.56,84.56,0.6,-0.65,0.18,-0.43,0.0,96.69,33.0,-91.37,96.69,33.0,-91.37,0.46,0.11,-0.71,-0.52
0.0,77.69,21.12,92.75,77.69,21.12,92.75,0.54,-0.69,0.22,-0.43,0.0,96.69,35.5,-86.87,96.69,35.5,-86.87,0.48,0.07,-0.69,-0.54
0.0,80.37,19.31,97.56,80.37,19.31,97.56,0.49,-0.7,0.28,-0.43,0.0,98.0,36.94,-83.0,98.0,36.94,-83.0,0.49,0.04,-0.67,-0.56
0.0,84.19,18.94,99.56,84.19,18.94,99.56,0.48,-0.7,0.29,-0.44,0.0,101.12,37.13,-83.69,101.12,37.13,-83.69,0.45,0.01,-0.68,-0.57
0.0,88.87,21.69,98.31,88.87,21.69,98.31,0.46,-0.69,0.29,-0.47,0.0,110.19,35.75,-87.87,110.19,35.75,-87.87,0.39,-0.02,-0.7,-0.6
0.0,95.75,24.0,98.5,95.75,24.0,98.5,0.43,-0.69,0.31,-0.5,0.0,119.44,33.69,-90.44,119.44,33.69,-90.44,0.34,-0.05,-0.71,-0.61
0.0,103.06,25.25,98.25,103.06,25.25,98.25,0.4,-0.67,0.34,-0.53,0.0,123.25,33.69,-90.69,123.25,33.69,-90.69,0.33,-0.07,-0.7,-0.62
0.0,111.44,28.12,95.37,111.44,28.12,95.37,0.37,-0.64,0.34,-0.58,0.0,124.12,34.63,-88.87,124.12,34.63,-88.87,0.33,-0.09,-0.7,-0.63
0.0,118.62,29.75,91.75,118.62,29.75,91.75,0.35,-0.62,0.36,-0.61,0.0,127.37,34.5,-89.06,127.37,34.5,-89.06,0.31,-0.11,-0.7,-0.64
0.0,122.37,30.56,88.69,122.37,30.56,88.69,0.34,-0.6,0.35,-0.63,0.0,130.94,34.0,-89.62,130.94,34.0,-89.62,0.29,-0.12,-0.69,-0.65
0.0,124.19,31.81,85.0,124.19,31.81,85.0,0.34,-0.58,0.34,-0.65,0.0,132.13,34.5,-89.06,132.13,34.5,-89.06,0.29,-0.13,-0.69,-0.65
0.0,126.37,31.25,83.37,126.37,31.25,83.37,0.33,-0.57,0.36,-0.66,0.0,133.81,34.56,-89.44,133.81,34.56,-89.44,0.27,-0.14,-0.69,-0.65
0.0,126.62,29.62,86.0,126.62,29.62,86.0,0.33,-0.58,0.39,-0.64,0.0,137.75,33.31,-90.0,137.75,33.31,-90.0,0.25,-0.15,-0.69,-0.66
0.0,124.12,28.06,91.06,124.12,28.06,91.06,0.33,-0.6,0.4,-0.61,0.0,140.56,32.5,-89.37,140.56,32.5,-89.37,0.24,-0.16,-0.68,-0.67
0.0,120.06,25.19,95.56,120.06,25.19,95.56,0.34,-0.61,0.43,-0.57,0.0,140.88,32.5,-87.81,140.88,32.5,-87.81,0.24,-0.16,-0.68,-0.68
0.0,112.37,21.87,99.5,112.37,21.87,99.5,0.37,-0.64,0.43,-0.52,0.0,140.88,32.06,-86.31,140.88,32.06,-86.31,0.25,-0.15,-0.67,-0.69
0.0,104.19,17.75,103.69,104.19,17.75,103.69,0.39,-0.65,0.45,-0.48,0.0,139.63,31.69,-85.0,139.63,31.69,-85.0,-0.11,-0.44,-0.52,-0.73
0.0,96.5,11.94,106.12,96.5,11.94,106.12,0.41,-0.65,0.46,-0.45,0.0,197.5,30.25,-83.0,197.5,30.25,-83.0,-0.12,-0.42,-0.52,-0.74
0.0,89.75,11.44,101.06,89.75,11.44,101.06,0.47,-0.64,0.4,-0.45,0.0,199.56,27.44,-81.44,199.56,27.44,-81.44,-0.13,-0.39,-0.53,-0.74
0.0,84.06,12.88,92.31,84.06,12.88,92.31,0.53,-0.62,0.34,-0.47,0.0,200.31,23.44,-80.5,200.31,23.44,-80.5,-0.13,-0.35,-0.55,-0.75
0.0,79.75,12.0,86.19,79.75,12.0,86.19,0.56,-0.6,0.32,-0.47,0.0,198.0,19.37,-82.81,198.0,19.37,-82.81,-0.12,-0.32,-0.58,-0.74
0.0,76.0,12.19,79.81,76.0,12.19,79.81,0.6,-0.58,0.28,-0.47,0.0,191.69,18.44,-89.87,191.69,18.44,-89.87,-0.07,-0.29,-0.64,-0.7
0.0,74.25,13.88,74.12,74.25,13.88,74.12,0.64,-0.56,0.22,-0.48,0.0,184.69,20.0,-93.69,184.69,20.0,-93.69,-0.03,-0.28,-0.67,-0.68
0.0,72.75,14.75,72.87,72.75,14.75,72.87,0.65,-0.56,0.21,-0.48,0.0,182.88,18.81,-95.25,182.88,18.81,-95.25,-0.02,-0.26,-0.69,-0.68
0.0,71.44,16.19,75.87,71.44,16.19,75.87,0.64,-0.59,0.2,-0.46,0.0,178.81,18.37,-102.75,178.81,18.37,-102.75,0.01,-0.24,-0.74,-0.63
0.0,72.56,19.5,77.56,72.56,19.5,77.56,0.62,-0.61,0.18,-0.46,0.0,163.5,25.0,-107.75,163.5,25.0,-107.75,0.09,-0.25,-0.76,-0.6
0.0,78.69,25.5,78.44,78.69,25.5,78.44,0.59,-0.62,0.15,-0.49,0.0,152.31,30.19,-100.5,152.31,30.19,-100.5,0.16,-0.22,-0.73,-0.63
0.0,88.5,32.88,83.44,88.5,32.88,83.44,0.53,-0.66,0.13,-0.52,0.0,147.75,31.81,-96.0,147.75,31.81,-96.0,0.2,-0.19,-0.71,-0.65
0.0,91.37,33.38,94.06,91.37,33.38,94.06,0.48,-0.71,0.15,-0.49,0.0,141.31,33.5,-93.81,141.31,33.5,-93.81,0.25,-0.18,-0.7,-0.64
0.0,90.75,35.0,99.75,90.75,35.0,99.75,0.46,-0.76,0.11,-0.45,0.0,131.38,37.56,-90.37,131.38,37.56,-90.37,0.31,-0.16,-0.68,-0.64
0.0,89.75,38.38,107.69,89.75,38.38,107.69,0.42,-0.8,0.06,-0.43,0.0,124.94,40.19,-84.19,124.94,40.19,-84.19,0.35,-0.15,-0.65,-0.66
0.0,98.75,42.38,116.25,98.75,42.38,116.25,0.35,-0.82,0.07,-0.45,0.0,124.31,41.44,-79.19,124.31,41.44,-79.19,0.35,-0.17,-0.63,-0.67
0.0,111.87,43.81,121.06,111.87,43.81,121.06,0.3,-0.82,0.12,-0.47,2.0,126.94,42.5,-80.62,126.94,42.5,-80.62,0.33,-0.2,-0.64,-0.67
0.0,122.87,49.75,122.0,122.87,49.75,122.0,0.26,-0.81,0.1,-0.52,2.0,130.94,44.19,-82.94,130.94,44.19,-82.94,0.3,-0.25,-0.63,-0.67
0.0,134.0,56.63,117.25,134.0,56.63,117.25,0.22,-0.77,0.11,-0.58,3.0,136.81,45.19,-84.25,136.81,45.19,-84.25,0.26,-0.29,-0.62,-0.68
0.0,144.63,61.06,109.94,144.63,61.06,109.94,0.18,-0.74,0.14,-0.63,3.0,142.88,45.44,-89.12,142.88,45.44,-89.12,0.21,-0.33,-0.63,-0.67
0.0,152.56,64.31,104.06,152.56,64.31,104.06,0.15,-0.72,0.15,-0.66,3.0,151.75,43.63,-96.19,151.75,43.63,-96.19,0.14,-0.38,-0.64,-0.65
0.0,160.0,67.12,95.25,160.0,67.12,95.25,0.11,-0.69,0.17,-0.69,3.0,163.25,39.63,-101.94,163.25,39.63,-101.94,0.08,-0.41,-0.64,-0.64
0.0,164.06,67.62,86.62,164.06,67.62,86.62,0.1,-0.68,0.17,-0.71,3.0,168.19,38.88,-101.94,168.19,38.88,-101.94,0.07,-0.42,-0.63,-0.65
0.0,163.38,68.5,92.25,163.38,68.5,92.25,0.11,-0.7,0.16,-0.68,3.0,168.25,40.25,-98.0,168.25,40.25,-98.0,0.06,-0.42,-0.61,-0.67
0.0,162.06,66.44,104.87,162.06,66.44,104.87,0.1,-0.72,0.19,-0.66,3.0,172.5,38.69,-96.62,172.5,38.69,-96.62,0.04,-0.43,-0.6,-0.67
0.0,162.25,61.13,104.62,162.25,61.13,104.62,0.11,-0.7,0.28,-0.65,3.0,178.19,36.06,-94.94,178.19,36.06,-94.94,0.0,-0.42,-0.59,-0.69
0.0,153.38,49.0,105.06,153.38,49.0,105.06,0.18,-0.69,0.37,-0.6,3.0,180.38,34.44,-92.62,180.38,34.44,-92.62,-0.0,-0.41,-0.59,-0.69
0.0,127.69,34.19,111.37,127.69,34.19,111.37,0.3,-0.73,0.36,-0.5,3.0,180.25,32.69,-92.37,180.25,32.69,-92.37,-0.0,-0.39,-0.6,-0.69
0.0,107.0,30.0,108.94,107.0,30.0,108.94,0.38,-0.74,0.28,-0.48,3.0,177.25,32.44,-91.75,177.25,32.44,-91.75,0.02,-0.36,-0.61,-0.7
0.0,98.87,26.87,103.75,98.87,26.87,103.75,0.42,-0.71,0.31,-0.47,3.0,178.63,29.5,-88.81,178.63,29.5,-88.81,0.01,-0.34,-0.61,-0.71
0.0,91.12,19.81,102.44,91.12,19.81,102.44,0.45,-0.7,0.32,-0.45,3.0,180.06,26.06,-86.94,180.06,26.06,-86.94,-0.0,-0.3,-0.62,-0.72
0.0,85.06,19.62,97.25,85.06,19.62,97.25,0.51,-0.68,0.27,-0.45,3.0,177.75,22.25,-87.06,177.75,22.25,-87.06,0.01,-0.25,-0.64,-0.72
0.0,81.25,20.69,89.69,81.25,20.69,89.69,0.55,-0.65,0.23,-0.47,3.0,166.38,21.56,-86.5,166.38,21.56,-86.5,0.09,-0.18,-0.66,-0.72
0.0,78.19,21.69,80.06,78.19,21.69,80.06,0.61,-0.6,0.17,-0.49,3.0,151.13,22.69,-87.0,151.13,22.69,-87.0,0.18,-0.1,-0.68,-0.7
0.0,76.12,22.5,70.94,76.12,22.5,70.94,0.64,-0.56,0.14,-0.5,3.0,137.06,25.31,-92.81,137.06,25.31,-92.81,0.25,-0.05,-0.72,-0.64
0.0,72.25,19.75,68.87,72.25,19.75,68.87,0.67,-0.55,0.15,-0.47,3.0,128.81,27.19,-104.62,128.81,27.19,-104.62,0.27,-0.03,-0.78,-0.56
0.0,67.06,18.37,66.5,67.06,18.37,66.5,0.7,-0.53,0.11,-0.45,3.0,130.0,25.12,-109.12,130.0,25.12,-109.12,0.24,-0.02,-0.81,-0.54
0.0,63.81,20.81,61.06,63.81,20.81,61.06,0.73,-0.51,0.06,-0.46,3.0,134.88,22.25,-107.69,134.88,22.25,-107.69,0.23,-0.01,-0.8,-0.56
0.0,65.87,22.94,57.0,65.87,22.94,57.0,0.72,-0.49,0.06,-0.48,3.0,136.06,21.37,-106.37,136.06,21.37,-106.37,0.24,-0.0,-0.79,-0.56
0.0,69.31,21.5,59.44,69.31,21.5,59.44,0.71,-0.51,0.09,-0.49,3.0,127.69,25.0,-105.25,127.69,25.0,-105.25,0.29,0.01,-0.78,-0.55
0.0,70.81,20.0,65.81,70.81,20.0,65.81,0.67,-0.55,0.13,-0.48,3.0,117.56,29.44,-99.81,117.56,29.44,-99.81,0.35,0.02,-0.75,-0.56
0.0,75.25,26.06,69.56,75.25,26.06,69.56,0.64,-0.58,0.1,-0.49,3.0,116.0,29.12,-95.81,116.0,29.12,-95.81,0.35,0.04,-0.74,-0.58
0.0,80.06,29.44,75.87,80.06,29.44,75.87,0.6,-0.62,0.11,-0.5,3.0,118.0,27.5,-96.06,118.0,27.5,-96.06,0.35,0.04,-0.74,-0.58
0.0,87.81,32.69,88.0,87.81,32.69,88.0,0.52,-0.68,0.14,-0.5,3.0,115.0,29.62,-94.31,115.0,29.62,-94.31,0.39,0.03,-0.72,-0.58
0.0,94.94,31.12,100.31,94.94,31.12,100.31,0.44,-0.73,0.21,-0.48,3.0,106.69,35.25,-88.37,106.69,35.25,-88.37,0.45,0.01,-0.69,-0.57
0.0,113.12,40.81,112.31,113.12,40.81,112.31,0.33,-0.78,0.19,-0.5,3.0,101.75,39.75,-82.94,101.75,39.75,-82.94,0.47,-0.02,-0.67,-0.57
0.0,126.31,44.63,122.25,126.31,44.63,122.25,0.2,-0.82,0.2,-0.5,3.0,101.31,43.56,-80.12,101.31,43.56,-80.12,0.47,-0.05,-0.66,-0.58
0.0,158.31,54.38,137.56,158.31,54.38,137.56,0.05,-0.8,0.24,-0.54,3.0,106.12,45.38,-81.87,106.12,45.38,-81.87,0.45,-0.1,-0.66,-0.59
0.0,180.63,62.38,129.81,180.63,62.38,129.81,-0.01,-0.71,0.32,-0.63,3.0,122.06,40.25,-95.19,122.06,40.25,-95.19,0.33,-0.15,-0.72,-0.6
0.0,179.19,65.0,92.56,179.19,65.0,92.56,0.01,-0.63,0.26,-0.74,3.0,144.44,30.25,-109.0,144.44,30.25,-109.0,0.18,-0.19,-0.78,-0.57
0.0,175.69,66.56,48.25,175.69,66.56,48.25,0.03,-0.57,0.12,-0.82,3.0,168.0,20.44,-112.0,168.0,20.44,-112.0,0.06,-0.23,-0.79,-0.57
0.0,179.06,68.12,14.94,179.06,68.12,14.94,0.0,-0.58,0.06,-0.82,2.0,178.56,16.25,-110.19,178.56,16.25,-110.19,-0.01,-0.23,-0.78,-0.58
0.0,179.94,70.87,40.0,179.94,70.87,40.0,-0.02,-0.6,0.16,-0.78,2.0,191.63,10.5,-106.12,191.63,10.5,-106.12,-0.06,-0.23,-0.76,-0.6
0.0,189.94,72.31,46.31,189.94,72.31,46.31,-0.08,-0.59,0.22,-0.78,2.0,196.38,8.38,-103.31,196.38,8.38,-103.31,-0.09,-0.23,-0.75,-0.61
0.0,193.81,67.87,49.06,193.81,67.87,49.06,-0.1,-0.56,0.26,-0.78,2.0,199.38,7.25,-101.62,199.38,7.25,-101.62,-0.12,-0.23,-0.73,-0.63
0.0,196.44,68.87,49.69,196.44,68.87,49.69,-0.12,-0.58,0.26,-0.77,2.0,208.56,3.06,-97.5,208.56,3.06,-97.5,-0.16,-0.23,-0.72,-0.64
0.0,198.38,72.56,71.69,198.38,72.56,71.69,-0.11,-0.62,0.33,-0.7,2.0,213.25,0.69,-95.37,213.25,0.69,-95.37,-0.21,-0.22,-0.7,-0.65
0.0,196.75,64.69,110.19,196.75,64.69,110.19,-0.08,-0.65,0.43,-0.62,2.0,218.38,-2.5,-93.06,218.38,-2.5,-93.06,-0.23,-0.2,-0.69,-0.65
0.0,190.31,57.75,126.06,190.31,57.75,126.06,-0.03,-0.7,0.42,-0.58,1.0,217.81,-3.5,-92.62,217.81,-3.5,-92.62,-0.22,-0.18,-0.7,-0.65
0.0,179.69,56.56,125.62,179.69,56.56,125.62,0.01,-0.72,0.37,-0.59,1.0,211.69,-3.19,-93.87,211.69,-3.19,-93.87,-0.17,-0.15,-0.72,-0.66
0.0,172.5,56.0,119.31,172.5,56.0,119.31,0.05,-0.71,0.36,-0.6,1.0,205.06,-3.25,-96.56,205.06,-3.25,-96.56,-0.13,-0.1,-0.74,-0.65
0.0,165.81,53.63,112.62,165.81,53.63,112.62,0.09,-0.69,0.35,-0.63,1.0,198.5,-4.44,-99.37,198.5,-4.44,-99.37,-0.08,-0.04,-0.77,-0.63
0.0,162.0,55.06,95.44,162.0,55.06,95.44,0.11,-0.64,0.3,-0.7,1.0,176.38,3.31,-105.37,176.38,3.31,-105.37,0.07,-0.02,-0.81,-0.58
0.0,160.44,55.19,81.06,160.44,55.19,81.06,0.13,-0.61,0.29,-0.72,1.0,152.5,13.44,-112.25,152.5,13.44,-112.25,0.16,-0.01,-0.83,-0.53
0.0,156.56,50.94,85.69,156.56,50.94,85.69,0.16,-0.61,0.33,-0.7,1.0,138.94,18.44,-114.06,138.94,18.44,-114.06,0.2,0.01,-0.83,-0.52
0.0,153.69,47.75,81.94,153.69,47.75,81.94,0.17,-0.58,0.31,-0.73,1.0,136.88,18.5,-112.31,136.88,18.5,-112.31,0.22,0.02,-0.83,-0.52
0.0,149.75,45.25,76.75,149.75,45.25,76.75,0.21,-0.57,0.32,-0.73,1.0,129.88,21.87,-114.06,129.88,21.87,-114.06,0.25,0.02,-0.83,-0.5
0.0,143.0,39.69,84.0,143.0,39.69,84.0,0.24,-0.58,0.37,-0.68,1.0,122.75,25.31,-114.0,122.75,25.31,-114.0,0.28,0.02,-0.82,-0.49
0.0,139.88,36.13,89.25,139.88,36.13,89.25,0.24,-0.59,0.4,-0.66,2.0,116.56,29.81,-110.37,116.56,29.81,-110.37,0.33,-0.01,-0.8,-0.51
0.0,138.63,35.44,95.94,138.63,35.44,95.94,0.24,-0.63,0.42,-0.61,2.0,112.94,34.81,-105.06,112.94,34.81,-105.06,0.35,-0.04,-0.77,-0.53
0.0,132.25,30.75,106.81,132.25,30.75,106.81,0.25,-0.67,0.45,-0.54,2.0,117.44,36.06,-99.87,117.44,36.06,-99.87,0.33,-0.08,-0.74,-0.58
0.0,128.94,30.69,111.37,128.94,30.69,111.37,0.25,-0.7,0.42,-0.53,2.0,126.81,34.44,-96.56,126.81,34.44,-96.56,0.29,-0.11,-0.73,-0.61
0.0,132.44,32.06,116.44,132.44,32.06,116.44,0.21,-0.71,0.45,-0.5,2.0,133.38,33.44,-95.5,133.38,33.44,-95.5,0.26,-0.14,-0.72,-0.62
0.0,137.88,29.31,125.56,137.88,29.31,125.56,0.16,-0.71,0.51,-0.45,2.0,136.69,33.63,-95.81,136.69,33.63,-95.81,0.25,-0.16,-0.72,-0.63
0.0,140.63,26.56,129.0,140.63,26.56,129.0,0.15,-0.7,0.53,-0.45,2.0,138.88,33.94,-95.0,138.88,33.94,-95.0,0.24,-0.18,-0.71,-0.64
0.0,146.94,32.0,124.69,146.94,32.0,124.69,0.14,-0.69,0.5,-0.51,3.0,142.75,32.31,-96.5,142.75,32.31,-96.5,0.19,-0.18,-0.73,-0.64
0.0,153.88,36.81,117.19,153.88,36.81,117.19,0.12,-0.65,0.49,-0.57,3.0,154.06,25.94,-101.19,154.06,25.94,-101.19,0.12,-0.18,-0.75,-0.62
0.0,158.5,39.94,108.5,158.5,39.94,108.5,0.11,-0.61,0.47,-0.62,3.0,167.25,18.75,-104.75,167.25,18.75,-104.75,0.04,-0.17,-0.78,-0.6
0.0,163.0,44.44,97.87,163.0,44.44,97.87,0.09,-0.58,0.43,-0.68,3.0,179.88,11.25,-109.06,179.88,11.25,-109.06,-0.02,-0.16,-0.81,-0.57
0.0,166.56,47.94,88.31,166.56,47.94,88.31,0.08,-0.57,0.4,-0.71,3.0,189.56,5.5,-113.0,189.56,5.5,-113.0,-0.05,-0.15,-0.82,-0.55
0.0,167.44,48.25,87.44,167.44,48.25,87.44,0.08,-0.57,0.41,-0.71,3.0,195.25,1.88,-114.94,195.25,1.88,-114.94,-0.08,-0.14,-0.84,-0.52
0.0,166.94,47.56,87.44,166.94,47.56,87.44,0.08,-0.56,0.4,-0.72,3.0,202.44,-2.44,-117.5,202.44,-2.44,-117.5,-0.1,-0.12,-0.85,-0.5
0.0,170.75,51.81,79.31,170.75,51.81,79.31,0.05,-0.55,0.35,-0.75,3.0,201.75,-2.44,-118.94,201.75,-2.44,-118.94,-0.09,-0.12,-0.86,-0.49
0.0,174.31,54.06,74.31,174.31,54.06,74.31,0.03,-0.55,0.35,-0.75,3.0,200.06,-1.19,-121.06,200.06,-1.19,-121.06,-0.08,-0.14,-0.86,-0.48
0.0,174.44,52.94,82.75,174.44,52.94,82.75,0.04,-0.57,0.39,-0.72,3.0,197.56,0.69,-122.06,197.56,0.69,-122.06,-0.07,-0.15,-0.86,-0.48
0.0,175.31,53.94,89.19,175.31,53.94,89.19,0.02,-0.6,0.38,-0.71,3.0,196.31,1.25,-119.75,196.31,1.25,-119.75,-0.08,-0.15,-0.85,-0.5
0.0,181.06,58.81,93.44,181.06,58.81,93.44,-0.02,-0.62,0.39,-0.68,3.0,201.06,-0.19,-116.69,201.06,-0.19,-116.69,-0.11,-0.16,-0.83,-0.52
0.0,183.63,55.19,106.94,183.63,55.19,106.94,-0.01,-0.62,0.47,-0.62,2.0,205.0,-0.88,-114.19,205.0,-0.88,-114.19,-0.12,-0.17,-0.82,-0.53
0.0,179.63,48.56,118.06,179.63,48.56,118.06,0.01,-0.65,0.49,-0.57,2.0,204.94,-0.81,-112.44,204.94,-0.81,-112.44,-0.12,-0.17,-0.81,-0.55
0.0,173.63,47.88,122.69,173.63,47.88,122.69,0.04,-0.69,0.45,-0.56,2.0,204.63,-1.0,-111.37,204.63,-1.0,-111.37,-0.12,-0.16,-0.81,-0.55
0.0,170.44,48.5,125.12,170.44,48.5,125.12,0.05,-0.72,0.43,-0.54,2.0,204.06,-1.69,-109.56,204.06,-1.69,-109.56,-0.12,-0.14,-0.8,-0.57
0.0,162.38,43.0,128.44,162.38,43.0,128.44,0.09,-0.74,0.44,-0.5,2.0,204.69,-3.88,-107.87,204.69,-3.88,-107.87,-0.12,-0.1,-0.8,-0.58
0.0,156.38,39.31,131.19,156.38,39.31,131.19,0.1,-0.75,0.44,-0.48,2.0,198.25,-2.75,-108.75,198.25,-2.75,-108.75,-0.07,-0.08,-0.81,-0.57
0.0,152.38,37.0,131.63,152.38,37.0,131.63,0.12,-0.75,0.45,-0.47,2.0,186.19,2.25,-111.56,186.19,2.25,-111.56,-0.02,-0.07,-0.83,-0.56
0.0,145.44,34.31,130.19,145.44,34.31,130.19,0.15,-0.75,0.44,-0.46,2.0,182.44,1.94,-111.94,182.44,1.94,-111.94,-0.01,-0.03,-0.83,-0.56
0.0,140.63,35.63,127.19,140.63,35.63,127.19,0.18,-0.77,0.38,-0.48,2.0,176.0,2.38,-113.44,176.0,2.38,-113.44,0.05,-0.0,-0.84,-0.54
0.0,140.5,40.13,125.0,140.5,40.13,125.0,0.18,-0.77,0.36,-0.5,2.0,153.75,12.06,-118.69,153.75,12.06,-118.69,0.12,-0.01,-0.86,-0.5
0.0,138.69,36.5,125.19,138.69,36.5,125.19,0.18,-0.76,0.4,-0.48,2.0,140.0,18.06,-120.94,140.0,18.06,-120.94,0.17,-0.01,-0.86,-0.48
0.0,140.19,37.06,124.31,140.19,37.06,124.31,0.18,-0.75,0.39,-0.5,3.0,146.88,14.75,-117.37,146.88,14.75,-117.37,0.15,0.0,-0.85,-0.5
0.0,138.69,39.25,120.06,138.69,39.25,120.06,0.2,-0.75,0.35,-0.53,3.0,151.06,12.5,-114.56,151.06,12.5,-114.56,0.15,0.01,-0.84,-0.53
0.0,136.63,41.25,115.81,136.63,41.25,115.81,0.22,-0.74,0.34,-0.54,3.0,137.69,19.56,-114.81,137.69,19.56,-114.81,0.22,-0.01,-0.83,-0.51
0.0,136.0,38.19,113.81,136.0,38.19,113.81,0.22,-0.71,0.39,-0.55,3.0,124.37,26.44,-113.94,124.37,26.44,-113.94,0.26,-0.01,-0.83,-0.5
0.0,138.44,38.06,110.06,138.44,38.06,110.06,0.22,-0.69,0.38,-0.57,3.0,118.87,29.94,-111.12,118.87,29.94,-111.12,0.3,-0.02,-0.81,-0.51
0.0,137.44,40.38,105.37,137.44,40.38,105.37,0.24,-0.69,0.35,-0.59,3.0,115.5,33.0,-106.94,115.5,33.0,-106.94,0.33,-0.03,-0.79,-0.52
0.0,134.56,38.56,104.94,134.56,38.56,104.94,0.24,-0.68,0.37,-0.58,3.0,112.81,35.88,-102.75,112.81,35.88,-102.75,0.35,-0.04,-0.77,-0.53
0.0,135.0,35.81,105.56,135.0,35.81,105.56,0.24,-0.67,0.41,-0.58,3.0,111.75,37.81,-100.5,111.75,37.81,-100.5,0.37,-0.06,-0.75,-0.54
0.0,135.13,34.88,105.06,135.13,34.88,105.06,0.24,-0.66,0.41,-0.58,3.0,113.87,37.81,-98.62,113.87,37.81,-98.62,0.36,-0.07,-0.75,-0.56
0.0,132.38,34.31,105.31,132.38,34.31,105.31,0.26,-0.67,0.4,-0.57,3.0,116.5,38.0,-95.75,116.5,38.0,-95.75,0.36,-0.08,-0.73,-0.58
0.0,131.5,34.25,106.81,131.5,34.25,106.81,0.25,-0.68,0.4,-0.56,3.0,119.0,38.06,-93.0,119.0,38.06,-93.0,0.35,-0.1,-0.71,-0.61
0.0,133.38,33.75,110.56,133.38,33.75,110.56,0.23,-0.69,0.43,-0.54,3.0,122.87,38.31,-90.06,122.87,38.31,-90.06,0.34,-0.12,-0.7,-0.62
0.0,132.19,31.25,113.94,132.19,31.25,113.94,0.23,-0.7,0.44,-0.52,3.0,123.56,39.31,-89.31,123.56,39.31,-89.31,0.34,-0.14,-0.69,-0.63
0.0,135.0,33.5,114.81,135.0,33.5,114.81,0.21,-0.7,0.43,-0.53,3.0,123.31,40.75,-89.0,123.31,40.75,-89.0,0.34,-0.15,-0.69,-0.63
0.0,142.5,34.19,118.44,142.5,34.19,118.44,0.16,-0.69,0.49,-0.51,3.0,118.87,44.0,-88.37,118.87,44.0,-88.37,0.36,-0.16,-0.68,-0.62
0.0,148.56,30.75,122.56,148.56,30.75,122.56,0.13,-0.66,0.55,-0.5,3.0,111.94,49.75,-84.25,111.94,49.75,-84.25,0.41,-0.19,-0.66,-0.6
0.0,156.5,33.44,123.75,156.5,33.44,123.75,0.1,-0.65,0.55,-0.51,3.0,107.37,55.31,-78.37,107.37,55.31,-78.37,0.44,-0.22,-0.63,-0.6
0.0,161.06,36.56,121.19,161.06,36.56,121.19,0.08,-0.65,0.53,-0.54,3.0,106.81,60.75,-74.0,106.81,60.75,-74.0,0.45,-0.28,-0.6,-0.6
0.0,164.25,40.25,117.56,164.25,40.25,117.56,0.08,-0.64,0.51,-0.57,3.0,108.19,63.5,-74.62,108.19,63.5,-74.62,0.43,-0.33,-0.58,-0.6
0.0,165.56,42.06,115.19,165.56,42.06,115.19,0.07,-0.64,0.49,-0.59,3.0,109.69,68.0,-83.62,109.69,68.0,-83.62,0.42,-0.38,-0.58,-0.59
0.0,167.0,43.56,111.31,167.0,43.56,111.31,0.07,-0.62,0.48,-0.61,3.0,109.75,69.62,-87.31,109.75,69.62,-87.31,0.41,-0.41,-0.58,-0.58
0.0,169.25,46.0,103.62,169.25,46.0,103.62,0.05,-0.6,0.45,-0.66,3.0,110.44,71.12,-91.81,110.44,71.12,-91.81,0.4,-0.43,-0.57,-0.58
0.0,173.31,50.94,91.81,173.31,50.94,91.81,0.03,-0.57,0.41,-0.71,3.0,113.62,70.81,-108.44,113.62,70.81,-108.44,0.37,-0.46,-0.58,-0.56
0.0,177.5,53.25,85.87,177.5,53.25,85.87,0.01,-0.56,0.41,-0.72,3.0,116.5,69.12,-117.75,116.5,69.12,-117.75,0.33,-0.5,-0.59,-0.54
0.0,180.81,53.31,86.81,180.81,53.31,86.81,-0.02,-0.55,0.42,-0.72,3.0,121.0,66.06,-127.12,121.0,66.06,-127.12,0.29,-0.53,-0.6,-0.53
0.0,186.13,55.63,84.25,186.13,55.63,84.25,-0.05,-0.54,0.41,-0.73,3.0,125.75,62.81,-131.81,125.75,62.81,-131.81,0.26,-0.55,-0.6,-0.52
0.0,191.25,58.81,79.19,191.25,58.81,79.19,-0.08,-0.54,0.39,-0.74,3.0,129.63,60.44,-134.13,129.63,60.44,-134.13,0.23,-0.56,-0.6,-0.52
0.0,196.38,61.88,80.56,196.38,61.88,80.56,-0.12,-0.56,0.4,-0.72,3.0,134.31,58.06,-133.13,134.31,58.06,-133.13,0.21,-0.56,-0.6,-0.52
0.0,202.5,64.06,89.5,202.5,64.06,89.5,-0.15,-0.56,0.44,-0.68,3.0,139.19,56.38,-132.69,139.19,56.38,-132.69,0.19,-0.58,-0.6,-0.53
0.0,207.56,63.19,99.62,207.56,63.19,99.62,-0.17,-0.56,0.49,-0.65,3.0,142.75,55.81,-132.5,142.75,55.81,-132.5,0.18,-0.59,-0.59,-0.53
0.0,210.13,61.63,111.31,210.13,61.63,111.31,-0.16,-0.58,0.52,-0.6,3.0,142.0,57.38,-130.06,142.0,57.38,-130.06,0.19,-0.57,-0.58,-0.55
0.0,207.56,57.38,125.56,207.56,57.38,125.56,-0.13,-0.63,0.54,-0.55,3.0,139.75,59.44,-125.75,139.75,59.44,-125.75,0.21,-0.56,-0.58,-0.56
0.0,200.69,52.25,133.81,200.69,52.25,133.81,-0.08,-0.66,0.54,-0.52,3.0,140.5,59.19,-123.31,140.5,59.19,-123.31,0.2,-0.55,-0.58,-0.57
0.0,192.0,46.06,135.38,192.0,46.06,135.38,-0.04,-0.66,0.57,-0.49,3.0,143.81,58.75,-121.5,143.81,58.75,-121.5,0.18,-0.56,-0.56,-0.58
0.0,182.25,37.81,137.0,182.25,37.81,137.0,0.01,-0.66,0.61,-0.44,3.0,147.38,58.56,-117.0,147.38,58.56,-117.0,0.17,-0.55,-0.55,-0.6
0.0,170.19,29.81,139.13,170.19,29.81,139.13,0.05,-0.66,0.64,-0.4,3.0,151.19,57.44,-105.31,151.19,57.44,-105.31,0.16,-0.51,-0.54,-0.65
0.0,155.75,23.75,138.69,155.75,23.75,138.69,0.1,-0.66,0.63,-0.38,3.0,153.69,54.19,-93.12,153.69,54.19,-93.12,0.17,-0.46,-0.54,-0.68
0.0,141.0,20.44,136.38,141.0,20.44,136.38,0.15,-0.69,0.6,-0.38,3.0,151.5,52.5,-88.44,151.5,52.5,-88.44,0.17,-0.42,-0.56,-0.69
0.0,129.0,18.5,133.56,129.0,18.5,133.56,0.19,-0.7,0.57,-0.37,3.0,154.25,48.75,-86.31,154.25,48.75,-86.31,0.16,-0.4,-0.56,-0.71
0.0,118.37,16.0,130.69,118.37,16.0,130.69,0.23,-0.71,0.55,-0.37,3.0,157.06,44.69,-80.31,157.06,44.69,-80.31,0.15,-0.35,-0.55,-0.74
0.0,107.94,13.69,128.56,107.94,13.69,128.56,0.27,-0.72,0.53,-0.36,3.0,159.06,39.31,-74.87,159.06,39.31,-74.87,0.14,-0.3,-0.55,-0.77
0.0,100.31,11.63,125.75,100.31,11.63,125.75,0.31,-0.71,0.52,-0.35,3.0,161.5,35.44,-75.06,161.5,35.44,-75.06,0.12,-0.28,-0.56,-0.77
0.0,94.12,8.56,122.19,94.12,8.56,122.19,0.34,-0.69,0.52,-0.36,3.0,162.19,33.38,-75.81,162.19,33.38,-75.81,0.12,-0.26,-0.57,-0.77
0.0,88.5,6.38,118.12,88.5,6.38,118.12,0.38,-0.68,0.52,-0.36,3.0,161.56,30.25,-74.12,161.56,30.25,-74.12,0.14,-0.21,-0.57,-0.78
0.0,80.69,2.63,113.94,80.69,2.63,113.94,0.43,-0.66,0.5,-0.35,3.0,156.5,27.19,-72.37,156.5,27.19,-72.37,0.17,-0.15,-0.59,-0.78
0.0,72.5,-0.12,108.75,72.5,-0.12,108.75,0.49,-0.65,0.47,-0.34,3.0,152.56,24.25,-75.87,152.56,24.25,-75.87,0.18,-0.11,-0.63,-0.75
0.0,66.37,-1.75,102.5,66.37,-1.75,102.5,0.54,-0.63,0.44,-0.34,3.0,152.44,20.56,-82.12,152.44,20.56,-82.12,0.18,-0.07,-0.67,-0.72
0.0,62.38,-3.19,96.0,62.38,-3.19,96.0,0.59,-0.6,0.41,-0.35,3.0,148.75,18.5,-87.06,148.75,18.5,-87.06,0.2,-0.02,-0.7,-0.69
0.0,60.69,-2.75,89.06,60.69,-2.75,89.06,0.63,-0.58,0.37,-0.37,3.0,141.13,18.62,-90.0,141.13,18.62,-90.0,0.23,0.01,-0.71,-0.67
0.0,59.44,-1.94,83.69,59.44,-1.94,83.69,0.66,-0.56,0.35,-0.37,3.0,132.31,20.94,-90.56,132.31,20.94,-90.56,0.28,0.04,-0.71,-0.64
0.0,57.44,-2.94,80.12,57.44,-2.94,80.12,0.67,-0.55,0.34,-0.37,3.0,128.13,22.81,-92.62,128.13,22.81,-92.62,0.3,0.04,-0.72,-0.62
0.0,56.06,-3.75,77.0,56.06,-3.75,77.0,0.69,-0.53,0.33,-0.37,3.0,129.19,22.94,-96.5,129.19,22.94,-96.5,0.29,0.03,-0.74,-0.6
0.0,53.63,-4.75,74.0,53.63,-4.75,74.0,0.71,-0.51,0.32,-0.36,3.0,128.81,22.56,-99.12,128.81,22.56,-99.12,0.28,0.04,-0.76,-0.59
0.0,50.38,-5.19,71.62,50.38,-5.19,71.62,0.73,-0.5,0.3,-0.35,3.0,124.19,23.69,-99.25,124.19,23.69,-99.25,0.32,0.06,-0.75,-0.57
0.0,48.75,-3.63,69.37,48.75,-3.63,69.37,0.75,-0.5,0.27,-0.34,3.0,114.0,26.94,-99.0,114.0,26.94,-99.0,0.37,0.09,-0.75,-0.54
0.0,47.38,-3.06,68.87,47.38,-3.06,68.87,0.75,-0.5,0.26,-0.33,3.0,107.81,27.81,-97.87,107.81,27.81,-97.87,0.41,0.11,-0.74,-0.53
0.0,47.38,-3.0,69.62,47.38,-3.0,69.62,0.75,-0.51,0.26,-0.33,3.0,100.12,30.87,-94.12,100.12,30.87,-94.12,0.45,0.12,-0.71,-0.53
0.0,47.75,-2.31,70.5,47.75,-2.31,70.5,0.74,-0.52,0.25,-0.33,3.0,95.12,33.06,-88.75,95.12,33.06,-88.75,0.49,0.11,-0.68,-0.53
0.0,45.88,-2.0,72.81,45.88,-2.0,72.81,0.74,-0.55,0.25,-0.31,3.0,94.25,33.5,-85.06,94.25,33.5,-85.06,0.5,0.11,-0.67,-0.54
0.0,45.13,-0.31,75.37,45.13,-0.31,75.37,0.73,-0.57,0.24,-0.3,3.0,95.62,32.69,-82.31,95.62,32.69,-82.31,0.5,0.11,-0.65,-0.56
0.0,44.88,0.37,77.44,44.88,0.37,77.44,0.72,-0.58,0.23,-0.3,3.0,94.87,32.44,-78.37,94.87,32.44,-78.37,0.52,0.11,-0.64,-0.56
0.0,47.06,1.81,78.56,47.06,1.81,78.56,0.71,-0.59,0.24,-0.31,3.0,94.06,32.44,-74.12,94.06,32.44,-74.12,0.53,0.1,-0.61,-0.57
0.0,48.19,1.81,80.12,48.19,1.81,80.12,0.69,-0.6,0.24,-0.31,3.0,94.75,32.25,-72.12,94.75,32.25,-72.12,0.54,0.09,-0.6,-0.59
0.0,48.25,2.13,81.94,48.25,2.13,81.94,0.69,-0.61,0.24,-0.31,3.0,96.62,32.19,-70.19,96.62,32.19,-70.19,0.53,0.08,-0.59,-0.6
0.0,49.19,3.13,84.31,49.19,3.13,84.31,0.67,-0.63,0.25,-0.31,3.0,98.06,32.81,-68.06,98.06,32.81,-68.06,0.53,0.05,-0.58,-0.62
0.0,50.94,3.94,88.0,50.94,3.94,88.0,0.65,-0.65,0.26,-0.31,3.0,100.5,33.63,-66.25,100.5,33.63,-66.25,0.52,0.03,-0.57,-0.63
0.0,54.06,5.81,91.56,54.06,5.81,91.56,0.62,-0.67,0.26,-0.32,3.0,103.62,34.5,-64.94,103.62,34.5,-64.94,0.5,0.0,-0.57,-0.65
0.0,58.81,8.44,95.31,58.81,8.44,95.31,0.59,-0.69,0.26,-0.33,3.0,106.94,35.06,-64.12,106.94,35.06,-64.12,0.48,-0.02,-0.57,-0.67
0.0,62.94,10.13,97.69,62.94,10.13,97.69,0.55,-0.7,0.28,-0.36,3.0,110.62,35.06,-63.88,110.62,35.06,-63.88,0.46,-0.04,-0.56,-0.68
0.0,77.19,18.62,98.69,77.19,18.62,98.69,0.48,-0.72,0.25,-0.44,3.0,113.87,35.19,-64.0,113.87,35.19,-64.0,0.45,-0.05,-0.56,-0.69
0.0,102.69,30.12,104.56,102.69,30.12,104.56,0.33,-0.74,0.3,-0.5,3.0,116.69,35.38,-64.19,116.69,35.38,-64.19,0.43,-0.07,-0.56,-0.7
0.0,135.5,37.38,121.5,135.5,37.38,121.5,0.15,-0.75,0.41,-0.49,3.0,120.31,35.69,-64.56,120.31,35.69,-64.56,0.41,-0.09,-0.56,-0.71
0.0,165.06,42.06,132.13,165.06,42.06,132.13,0.03,-0.73,0.46,-0.51,3.0,123.44,36.56,-64.87,123.44,36.56,-64.87,0.39,-0.11,-0.56,-0.72
0.0,184.94,55.44,128.25,184.94,55.44,128.25,-0.05,-0.69,0.39,-0.6,3.0,125.12,37.56,-64.56,125.12,37.56,-64.56,0.38,-0.13,-0.56,-0.73
0.0,196.31,70.37,105.31,196.31,70.37,105.31,-0.12,-0.64,0.31,-0.69,3.0,126.87,38.81,-64.5,126.87,38.81,-64.5,0.37,-0.15,-0.56,-0.73
0.0,203.88,77.56,83.87,203.88,77.56,83.87,-0.16,-0.65,0.28,-0.69,3.0,130.19,40.06,-67.0,130.19,40.06,-67.0,0.34,-0.18,-0.56,-0.73
0.0,208.88,80.87,109.19,208.88,80.87,109.19,-0.18,-0.67,0.28,-0.66,3.0,132.38,40.88,-68.37,132.38,40.88,-68.37,0.32,-0.2,-0.57,-0.73
0.0,216.5,85.31,175.63,216.5,85.31,175.63,-0.24,-0.65,0.27,-0.67,3.0,132.13,41.44,-67.0,132.13,41.44,-67.0,0.33,-0.2,-0.56,-0.73
0.0,223.13,84.37,1.5,223.13,84.37,1.5,-0.29,-0.61,0.26,-0.69,3.0,132.25,42.13,-67.0,132.25,42.13,-67.0,0.32,-0.21,-0.56,-0.73
0.0,228.81,83.94,-1.37,228.81,83.94,-1.37,-0.32,-0.62,0.27,-0.66,3.0,133.06,42.75,-68.0,133.06,42.75,-68.0,0.31,-0.23,-0.56,-0.73
0.0,236.13,84.06,-4.94,236.13,84.06,-4.94,-0.36,-0.63,0.27,-0.63,3.0,134.13,43.69,-68.75,134.13,43.69,-68.75,0.31,-0.24,-0.56,-0.73
0.0,244.94,81.19,-79.12,244.94,81.19,-79.12,-0.4,-0.64,0.29,-0.59,3.0,134.44,43.88,-68.25,134.44,43.88,-68.25,0.31,-0.24,-0.56,-0.73
0.0,253.31,80.0,-105.31,253.31,80.0,-105.31,-0.41,-0.65,0.35,-0.53,3.0,134.88,43.94,-68.44,134.88,43.94,-68.44,0.3,-0.24,-0.56,-0.73
0.0,259.31,76.06,-140.19,259.31,76.06,-140.19,-0.4,-0.67,0.41,-0.47,3.0,135.81,44.0,-69.37,135.81,44.0,-69.37,0.3,-0.25,-0.56,-0.73
0.0,260.63,68.06,-156.88,260.63,68.06,-156.88,-0.35,-0.71,0.43,-0.42,3.0,135.81,43.88,-69.37,135.81,43.88,-69.37,0.3,-0.25,-0.56,-0.73
0.0,257.0,60.38,-166.56,257.0,60.38,-166.56,-0.3,-0.75,0.45,-0.39,3.0,135.88,43.69,-69.31,135.88,43.69,-69.31,0.3,-0.24,-0.56,-0.73
0.0,246.13,54.5,-178.56,246.13,54.5,-178.56,-0.23,-0.76,0.48,-0.38,3.0,136.44,43.5,-70.06,136.44,43.5,-70.06,0.29,-0.24,-0.56,-0.73
0.0,235.94,50.69,174.25,235.94,50.69,174.25,-0.19,-0.76,0.49,-0.38,3.0,136.88,43.31,-70.56,136.88,43.31,-70.56,0.29,-0.24,-0.57,-0.73
0.0,225.94,46.5,168.06,225.94,46.5,168.06,-0.14,-0.76,0.52,-0.37,3.0,137.56,42.63,-71.25,137.56,42.63,-71.25,0.28,-0.24,-0.57,-0.73
0.0,249.25,41.06,162.56,249.25,41.06,162.56,-0.08,-0.77,0.53,-0.36,3.0,138.0,42.06,-72.12,138.0,42.06,-72.12,0.28,-0.24,-0.57,-0.73
0.0,247.94,36.5,156.44,247.94,36.5,156.44,-0.01,-0.77,0.52,-0.37,3.0,138.94,41.31,-73.19,138.94,41.31,-73.19,0.27,-0.23,-0.59,-0.73
0.0,172.88,34.44,148.69,172.88,34.44,148.69,0.04,-0.76,0.51,-0.39,3.0,141.94,39.19,-77.44,141.94,39.19,-77.44,0.25,-0.23,-0.6,-0.72
0.0,157.94,32.0,141.0,157.94,32.0,141.0,0.1,-0.75,0.51,-0.41,3.0,143.63,37.75,-78.19,143.63,37.75,-78.19,0.23,-0.22,-0.61,-0.72
0.0,140.69,27.75,134.63,140.69,27.75,134.63,0.17,-0.75,0.49,-0.41,3.0,145.94,34.88,-79.87,145.94,34.88,-79.87,0.21,-0.2,-0.63,-0.72
0.0,127.06,25.37,127.37,127.06,25.37,127.37,0.23,-0.73,0.47,-0.43,3.0,149.0,31.94,-83.62,149.0,31.94,-83.62,0.19,-0.19,-0.65,-0.71
0.0,118.37,23.31,119.0,118.37,23.31,119.0,0.29,-0.71,0.45,-0.46,3.0,150.94,29.75,-85.0,150.94,29.75,-85.0,0.19,-0.17,-0.66,-0.71
0.0,109.37,21.94,110.19,109.37,21.94,110.19,0.36,-0.69,0.41,-0.48,3.0,149.56,28.75,-85.44,149.56,28.75,-85.44,0.19,-0.16,-0.67,-0.7
0.0,102.75,20.06,102.69,102.75,20.06,102.69,0.41,-0.66,0.4,-0.49,3.0,148.38,28.31,-87.94,148.38,28.31,-87.94,0.2,-0.15,-0.69,-0.68
0.0,96.44,16.44,97.44,96.44,16.44,97.44,0.46,-0.63,0.39,-0.49,3.0,147.63,28.19,-91.87,147.63,28.19,-91.87,0.2,-0.15,-0.71,-0.66
0.0,90.62,14.25,92.56,90.62,14.25,92.56,0.5,-0.61,0.37,-0.49,3.0,143.5,28.87,-96.12,143.5,28.87,-96.12,0.22,-0.13,-0.73,-0.63
0.0,83.94,10.94,87.06,83.94,10.94,87.06,0.56,-0.58,0.34,-0.48,3.0,135.81,31.0,-98.06,135.81,31.0,-98.06,0.26,-0.12,-0.74,-0.61
0.0,76.87,8.81,80.56,76.87,8.81,80.56,0.61,-0.56,0.31,-0.47,3.0,129.38,33.31,-98.56,129.38,33.31,-98.56,0.29,-0.11,-0.74,-0.59
0.0,71.44,6.88,75.75,71.44,6.88,75.75,0.65,-0.53,0.29,-0.46,3.0,125.94,34.56,-100.0,125.94,34.56,-100.0,0.3,-0.1,-0.75,-0.58
0.0,67.25,4.38,71.94,67.25,4.38,71.94,0.68,-0.51,0.28,-0.45,3.0,123.06,36.0,-99.62,123.06,36.0,-99.62,0.32,-0.1,-0.74,-0.58
0.0,64.56,3.94,68.69,64.56,3.94,68.69,0.7,-0.5,0.26,-0.44,3.0,118.19,38.75,-95.87,118.19,38.75,-95.87,0.36,-0.1,-0.72,-0.58
0.0,61.31,3.56,68.62,61.31,3.56,68.62,0.71,-0.51,0.26,-0.41,3.0,112.5,41.69,-89.25,112.5,41.69,-89.25,0.41,-0.1,-0.68,-0.59
0.0,57.44,1.63,70.62,57.44,1.63,70.62,0.72,-0.52,0.26,-0.39,3.0,108.37,43.44,-81.31,108.37,43.44,-81.31,0.45,-0.09,-0.65,-0.61
0.0,55.56,1.5,72.44,55.56,1.5,72.44,0.71,-0.53,0.26,-0.38,3.0,106.56,43.75,-75.81,106.56,43.75,-75.81,0.46,-0.09,-0.64,-0.61
0.0,53.69,1.31,75.62,53.69,1.31,75.62,0.7,-0.55,0.26,-0.36,3.0,107.0,43.13,-72.62,107.0,43.13,-72.62,0.46,-0.09,-0.62,-0.63
0.0,52.25,0.12,79.62,52.25,0.12,79.62,0.69,-0.58,0.28,-0.34,3.0,107.12,43.19,-70.25,107.12,43.19,-70.25,0.47,-0.09,-0.6,-0.64
0.0,53.19,-0.5,82.44,53.19,-0.5,82.44,0.67,-0.59,0.3,-0.34,3.0,106.56,43.06,-64.81,106.56,43.06,-64.81,0.49,-0.1,-0.57,-0.65
0.0,55.63,1.25,83.06,55.63,1.25,83.06,0.66,-0.6,0.29,-0.36,3.0,105.44,44.0,-61.0,105.44,44.0,-61.0,0.5,-0.11,-0.56,-0.66
0.0,59.69,4.88,84.75,59.69,4.88,84.75,0.63,-0.62,0.29,-0.37,3.0,107.12,45.44,-60.81,107.12,45.44,-60.81,0.48,-0.14,-0.56,-0.66
0.0,64.19,7.13,89.37,64.19,7.13,89.37,0.59,-0.65,0.3,-0.38,3.0,108.62,47.88,-60.63,108.62,47.88,-60.63,0.47,-0.17,-0.55,-0.66
0.0,71.75,10.81,94.12,71.75,10.81,94.12,0.54,-0.67,0.31,-0.41,3.0,110.56,51.0,-60.75,110.56,51.0,-60.75,0.45,-0.22,-0.55,-0.67
0.0,81.06,16.62,97.44,81.06,16.62,97.44,0.49,-0.7,0.29,-0.44,3.0,114.19,54.5,-64.94,114.19,54.5,-64.94,0.42,-0.27,-0.56,-0.66
0.0,93.75,26.94,100.44,93.75,26.94,100.44,0.41,-0.73,0.24,-0.49,3.0,116.62,59.81,-72.75,116.62,59.81,-72.75,0.4,-0.32,-0.57,-0.64
0.0,110.37,37.44,107.75,110.37,37.44,107.75,0.32,-0.77,0.22,-0.51,3.0,119.44,63.88,-86.19,119.44,63.88,-86.19,0.35,-0.4,-0.58,-0.61
0.0,130.06,45.0,115.69,130.06,45.0,115.69,0.21,-0.77,0.25,-0.54,3.0,121.06,65.25,-98.44,121.06,65.25,-98.44,0.34,-0.43,-0.59,-0.6
0.0,148.25,50.94,120.56,148.25,50.94,120.56,0.14,-0.77,0.26,-0.57,3.0,120.75,67.19,-102.12,120.75,67.19,-102.12,0.33,-0.45,-0.58,-0.59
0.0,160.63,58.13,124.25,160.63,58.13,124.25,0.09,-0.77,0.23,-0.59,3.0,120.94,68.81,-106.69,120.94,68.81,-106.69,0.33,-0.49,-0.57,-0.58
0.0,168.13,65.19,124.12,168.13,65.19,124.12,0.05,-0.75,0.19,-0.63,3.0,121.87,69.44,-112.5,121.87,69.44,-112.5,0.32,-0.5,-0.56,-0.58
0.0,174.88,70.81,120.87,174.88,70.81,120.87,0.03,-0.74,0.19,-0.65,3.0,122.62,70.37,-116.37,122.62,70.37,-116.37,0.31,-0.53,-0.54,-0.57
0.0,176.0,70.31,122.62,176.0,70.31,122.62,0.02,-0.75,0.2,-0.64,3.0,123.25,71.5,-119.31,123.25,71.5,-119.31,0.31,-0.54,-0.53,-0.57
0.0,178.31,70.56,124.37,178.31,70.56,124.37,0.0,-0.74,0.2,-0.64,3.0,124.5,71.87,-123.5,124.5,71.87,-123.5,0.3,-0.56,-0.52,-0.57
0.0,181.5,73.19,121.81,181.5,73.19,121.81,-0.01,-0.73,0.19,-0.65,3.0,125.94,72.06,-125.94,125.94,72.06,-125.94,0.29,-0.58,-0.51,-0.57
0.0,184.75,75.81,122.75,184.75,75.81,122.75,-0.04,-0.73,0.19,-0.66,3.0,127.56,72.44,-127.0,127.56,72.44,-127.0,0.28,-0.59,-0.5,-0.57
0.0,188.94,77.06,127.31,188.94,77.06,127.31,-0.06,-0.73,0.19,-0.65,3.0,129.19,72.75,-127.44,129.19,72.75,-127.44,0.27,-0.6,-0.48,-0.58
0.0,193.69,76.62,139.69,193.69,76.62,139.69,-0.08,-0.74,0.22,-0.63,3.0,130.69,73.44,-127.31,130.69,73.44,-127.31,0.27,-0.61,-0.47,-0.59
0.0,199.19,73.31,152.38,199.19,73.31,152.38,-0.11,-0.76,0.25,-0.59,3.0,132.25,73.94,-126.75,132.25,73.94,-126.75,0.26,-0.61,-0.45,-0.59
0.0,205.13,71.87,160.38,205.13,71.87,160.38,-0.14,-0.76,0.26,-0.58,3.0,133.81,74.37,-125.31,133.81,74.37,-125.31,0.25,-0.62,-0.44,-0.6
0.0,209.56,71.87,167.88,209.56,71.87,167.88,-0.16,-0.77,0.26,-0.56,3.0,135.38,75.12,-120.37,135.38,75.12,-120.37,0.25,-0.61,-0.43,-0.61
0.0,213.44,69.19,172.69,213.44,69.19,172.69,-0.17,-0.78,0.28,-0.54,3.0,138.06,74.69,-112.94,138.06,74.69,-112.94,0.23,-0.6,-0.43,-0.63
0.0,216.69,67.87,176.44,216.69,67.87,176.44,-0.18,-0.78,0.28,-0.53,3.0,143.94,71.62,-101.37,143.94,71.62,-101.37,0.21,-0.59,-0.43,-0.65
0.0,215.19,70.25,170.75,215.19,70.25,170.75,-0.17,-0.76,0.3,-0.55,3.0,148.5,67.44,-85.19,148.5,67.44,-85.19,0.19,-0.55,-0.43,-0.69
0.0,208.75,66.62,160.69,208.75,66.62,160.69,-0.12,-0.77,0.33,-0.53,3.0,150.31,61.88,-75.75,150.31,61.88,-75.75,0.19,-0.49,-0.45,-0.72
0.0,197.63,57.56,155.13,197.63,57.56,155.13,-0.06,-0.79,0.36,-0.49,3.0,154.0,54.63,-70.56,154.0,54.63,-70.56,0.17,-0.44,-0.46,-0.75
0.0,188.0,52.06,150.56,188.0,52.06,150.56,-0.02,-0.79,0.37,-0.48,3.0,157.31,47.56,-65.94,157.31,47.56,-65.94,0.16,-0.38,-0.47,-0.78
0.0,180.5,51.13,145.31,180.5,51.13,145.31,0.01,-0.79,0.36,-0.49,3.0,158.75,41.88,-62.94,158.75,41.88,-62.94,0.15,-0.33,-0.47,-0.8
0.0,173.44,48.88,142.44,173.44,48.88,142.44,0.04,-0.79,0.37,-0.48,3.0,160.5,37.0,-62.13,160.5,37.0,-62.13,0.14,-0.29,-0.48,-0.82
0.0,167.0,43.5,142.81,167.0,43.5,142.81,0.06,-0.8,0.4,-0.45,3.0,161.5,32.69,-61.31,161.5,32.69,-61.31,0.13,-0.25,-0.49,-0.83
0.0,158.56,38.88,141.19,158.56,38.88,141.19,0.1,-0.8,0.4,-0.44,3.0,161.44,29.31,-60.63,161.44,29.31,-60.63,0.14,-0.21,-0.49,-0.83
0.0,149.44,38.06,135.63,149.44,38.06,135.63,0.14,-0.79,0.39,-0.46,3.0,161.31,26.56,-61.19,161.31,26.56,-61.19,0.14,-0.19,-0.5,-0.83
0.0,142.88,38.63,129.25,142.88,38.63,129.25,0.17,-0.78,0.37,-0.48,3.0,161.06,24.56,-62.75,161.06,24.56,-62.75,0.14,-0.16,-0.51,-0.83
0.0,137.56,37.38,125.31,137.56,37.38,125.31,0.2,-0.77,0.37,-0.48,3.0,160.94,22.69,-64.0,160.94,22.69,-64.0,0.14,-0.15,-0.53,-0.83
0.0,133.31,35.63,122.31,133.31,35.63,122.31,0.22,-0.75,0.38,-0.49,3.0,160.69,21.37,-66.12,160.69,21.37,-66.12,0.14,-0.13,-0.54,-0.82
0.0,129.94,34.56,117.87,129.94,34.56,117.87,0.25,-0.74,0.38,-0.51,3.0,160.44,20.25,-68.19,160.44,20.25,-68.19,0.14,-0.12,-0.56,-0.81
0.0,124.44,33.06,113.25,124.44,33.06,113.25,0.28,-0.73,0.36,-0.51,3.0,160.13,19.56,-70.25,160.13,19.56,-70.25,0.14,-0.11,-0.57,-0.8
0.0,120.06,32.06,109.62,120.06,32.06,109.62,0.31,-0.71,0.35,-0.52,3.0,160.06,18.69,-73.75,160.06,18.69,-73.75,0.14,-0.1,-0.6,-0.78
0.0,116.5,30.44,105.69,116.5,30.44,105.69,-0.24,-0.11,0.77,-0.58,3.0,158.5,18.25,-77.25,158.5,18.25,-77.25,0.14,-0.09,-0.62,-0.76
0.0,222.0,28.81,101.56,222.0,28.81,101.56,-0.22,-0.11,0.75,-0.61,3.0,154.88,19.0,-78.56,154.88,19.0,-78.56,0.17,-0.08,-0.63,-0.75
0.0,216.94,26.56,97.0,216.94,26.56,97.0,-0.21,-0.1,0.73,-0.64,3.0,154.13,18.94,-79.87,154.13,18.94,-79.87,0.17,-0.07,-0.65,-0.74
0.0,212.44,24.31,92.06,212.44,24.31,92.06,-0.19,-0.1,0.7,-0.68,3.0,155.5,17.87,-82.94,155.5,17.87,-82.94,0.16,-0.07,-0.67,-0.73
0.0,207.88,22.44,87.87,207.88,22.44,87.87,-0.16,-0.1,0.68,-0.71,3.0,153.31,18.31,-85.25,153.31,18.31,-85.25,0.17,-0.06,-0.68,-0.71
0.0,202.63,19.75,84.12,202.63,19.75,84.12,-0.14,-0.1,0.66,-0.74,3.0,150.88,19.19,-86.31,150.88,19.19,-86.31,0.19,-0.05,-0.69,-0.7
0.0,197.38,17.5,80.69,197.38,17.5,80.69,-0.1,-0.1,0.64,-0.76,3.0,149.25,19.69,-88.94,149.25,19.69,-88.94,0.19,-0.05,-0.7,-0.68
0.0,191.06,14.63,78.81,191.06,14.63,78.81,-0.06,-0.11,0.62,-0.77,3.0,147.69,20.12,-90.69,147.69,20.12,-90.69,0.2,-0.05,-0.71,-0.67
0.0,187.06,14.0,76.69,187.06,14.0,76.69,-0.04,-0.12,0.61,-0.78,3.0,143.38,21.69,-90.75,143.38,21.69,-90.75,0.23,-0.04,-0.71,-0.66
0.0,183.13,13.19,76.81,183.13,13.19,76.81,-0.01,-0.13,0.61,-0.78,3.0,140.81,22.12,-92.19,140.81,22.12,-92.19,0.23,-0.03,-0.72,-0.65
0.0,178.69,11.5,78.87,178.69,11.5,78.87,0.02,-0.14,0.62,-0.77,3.0,139.88,22.19,-92.62,139.88,22.19,-92.62,0.24,-0.02,-0.72,-0.65
0.0,175.13,10.69,80.37,175.13,10.69,80.37,0.04,-0.15,0.63,-0.76,3.0,134.88,23.94,-91.44,134.88,23.94,-91.44,0.28,-0.01,-0.71,-0.65
0.0,172.75,9.63,82.5,172.75,9.63,82.5,0.05,-0.15,0.65,-0.75,3.0,131.44,24.87,-89.37,131.44,24.87,-89.37,0.29,-0.01,-0.7,-0.65
0.0,172.56,9.19,84.31,172.56,9.19,84.31,0.04,-0.15,0.66,-0.74,3.0,132.88,23.37,-87.69,132.88,23.37,-87.69,0.29,0.01,-0.69,-0.67
0.0,174.06,9.31,85.62,174.06,9.31,85.62,0.04,-0.14,0.67,-0.73,3.0,132.5,21.87,-84.44,132.5,21.87,-84.44,0.3,0.03,-0.67,-0.68
1.0,174.75,9.69,87.0,174.75,9.69,87.0,0.03,-0.15,0.68,-0.72,3.0,130.63,20.0,-80.69,130.63,20.0,-80.69,0.32,0.06,-0.64,-0.69
1.0,174.31,9.81,89.81,174.31,9.81,89.81,0.03,-0.16,0.7,-0.7,3.0,130.44,17.87,-78.31,130.44,17.87,-78.31,0.33,0.08,-0.63,-0.7
3.0,175.75,10.56,92.87,175.75,10.56,92.87,0.02,-0.16,0.71,-0.68,3.0,130.44,16.69,-76.12,130.44,16.69,-76.12,0.33,0.08,-0.61,-0.72
3.0,178.69,11.88,95.44,178.69,11.88,95.44,0.0,-0.16,0.73,-0.67,3.0,129.56,16.56,-73.31,129.56,16.56,-73.31,0.34,0.08,-0.59,-0.72
3.0,182.81,14.25,98.0,182.81,14.25,98.0,-0.03,-0.17,0.74,-0.65,3.0,129.25,17.31,-70.81,129.25,17.31,-70.81,0.34,0.07,-0.58,-0.74
3.0,190.75,18.0,102.56,190.75,18.0,102.56,-0.06,-0.18,0.76,-0.63,3.0,131.25,17.56,-69.31,131.25,17.56,-69.31,0.33,0.05,-0.57,-0.75
3.0,197.31,20.87,107.87,197.31,20.87,107.87,-0.1,-0.19,0.78,-0.58,3.0,132.81,17.75,-67.81,132.81,17.75,-67.81,0.33,0.04,-0.56,-0.76
3.0,205.63,26.06,111.69,205.63,26.06,111.69,-0.13,-0.21,0.79,-0.56,3.0,133.25,18.12,-66.75,133.25,18.12,-66.75,0.33,0.04,-0.56,-0.76
3.0,217.56,31.62,116.12,217.56,31.62,116.12,-0.18,-0.22,0.8,-0.53,3.0,136.19,18.06,-67.75,136.19,18.06,-67.75,0.31,0.02,-0.57,-0.76
3.0,230.13,35.81,121.44,230.13,35.81,121.44,-0.23,-0.22,0.81,-0.49,3.0,145.13,14.63,-70.25,145.13,14.63,-70.25,0.24,0.02,-0.58,-0.78
3.0,238.75,38.75,126.25,238.75,38.75,126.25,-0.25,-0.23,0.82,-0.45,3.0,150.81,12.31,-71.69,150.81,12.31,-71.69,0.18,0.02,-0.59,-0.78
3.0,248.25,43.63,130.31,248.25,43.63,130.31,-0.29,-0.25,0.82,-0.43,3.0,161.0,7.81,-73.44,161.0,7.81,-73.44,0.13,0.01,-0.6,-0.79
3.0,262.38,49.94,133.94,262.38,49.94,133.94,-0.35,-0.26,0.81,-0.4,3.0,164.31,6.56,-74.87,164.31,6.56,-74.87,0.1,0.01,-0.62,-0.78
3.0,269.38,52.0,134.94,269.38,52.0,134.94,-0.39,-0.23,0.81,-0.37,3.0,170.13,4.25,-78.25,170.13,4.25,-78.25,0.05,0.0,-0.64,-0.77
3.0,277.81,56.06,135.19,277.81,56.06,135.19,-0.43,-0.23,0.79,-0.36,3.0,173.44,3.25,-81.94,173.44,3.25,-81.94,0.04,-0.01,-0.66,-0.75
3.0,286.25,63.44,137.19,286.25,63.44,137.19,-0.48,-0.26,0.77,-0.34,3.0,174.75,4.13,-86.19,174.75,4.13,-86.19,0.03,-0.03,-0.69,-0.72
3.0,292.25,67.25,141.63,292.25,67.25,141.63,-0.5,-0.27,0.76,-0.32,3.0,175.06,6.06,-90.19,175.06,6.06,-90.19,0.03,-0.05,-0.71,-0.7
3.0,297.63,69.94,145.75,297.63,69.94,145.75,-0.52,-0.27,0.75,-0.3,3.0,173.13,8.69,-93.87,173.13,8.69,-93.87,0.04,-0.08,-0.74,-0.67
3.0,303.38,74.56,147.81,303.38,74.56,147.81,-0.56,-0.26,0.73,-0.29,3.0,173.06,11.75,-98.69,173.06,11.75,-98.69,0.03,-0.13,-0.75,-0.64
3.0,309.44,81.81,144.13,309.44,81.81,144.13,-0.62,-0.26,0.68,-0.28,3.0,177.81,12.0,-102.19,177.81,12.0,-102.19,0.01,-0.16,-0.76,-0.62
3.0,315.69,88.69,178.69,315.69,88.69,178.69,-0.66,-0.24,0.66,-0.26,3.0,178.88,13.19,-104.5,178.88,13.19,-104.5,0.01,-0.19,-0.77,-0.61
3.0,319.31,88.37,1.44,319.31,88.37,1.44,-0.66,-0.22,0.67,-0.24,3.0,176.06,16.0,-107.56,176.06,16.0,-107.56,0.03,-0.21,-0.78,-0.59
3.0,322.56,87.31,178.94,322.56,87.31,178.94,-0.65,-0.22,0.69,-0.22,3.0,173.38,18.31,-109.5,173.38,18.31,-109.5,0.03,-0.23,-0.78,-0.58
3.0,324.44,87.81,-179.75,324.44,87.81,-179.75,-0.67,-0.23,0.68,-0.21,3.0,174.19,18.94,-109.37,174.19,18.94,-109.37,0.03,-0.24,-0.77,-0.59
3.0,326.38,87.5,-177.5,326.38,87.5,-177.5,-0.68,-0.23,0.67,-0.2,3.0,174.94,19.56,-108.62,174.94,19.56,-108.62,0.03,-0.26,-0.77,-0.59
3.0,326.81,86.44,-178.19,326.81,86.44,-178.19,-0.65,-0.22,0.7,-0.19,3.0,174.13,20.81,-108.81,174.13,20.81,-108.81,0.03,-0.27,-0.76,-0.59
3.0,327.25,83.06,-178.25,327.25,83.06,-178.25,-0.63,-0.21,0.72,-0.19,3.0,172.75,22.19,-108.19,172.75,22.19,-108.19,0.04,-0.27,-0.75,-0.6
3.0,326.31,82.06,169.06,326.31,82.06,169.06,-0.63,-0.19,0.73,-0.2,3.0,171.31,23.75,-107.56,171.31,23.75,-107.56,0.05,-0.28,-0.75,-0.6
3.0,322.0,78.81,150.81,322.0,78.81,150.81,-0.6,-0.17,0.75,-0.22,3.0,168.81,25.75,-107.37,168.81,25.75,-107.37,0.06,-0.29,-0.74,-0.6
3.0,317.94,73.62,149.69,317.94,73.62,149.69,-0.56,-0.17,0.78,-0.22,3.0,165.69,27.69,-107.19,165.69,27.69,-107.19,0.08,-0.29,-0.74,-0.6
3.0,313.0,67.37,148.31,313.0,67.37,148.31,-0.51,-0.15,0.81,-0.23,3.0,160.44,30.69,-105.56,160.44,30.69,-105.56,0.12,-0.29,-0.72,-0.62
3.0,306.13,58.13,146.94,306.13,58.13,146.94,-0.45,-0.11,0.85,-0.24,3.0,156.88,32.56,-102.87,156.88,32.56,-102.87,0.13,-0.28,-0.71,-0.63
3.0,294.38,48.19,143.81,294.38,48.19,143.81,-0.38,-0.06,0.88,-0.27,3.0,157.81,31.87,-99.69,157.81,31.87,-99.69,0.13,-0.27,-0.7,-0.65
3.0,272.19,36.94,139.44,272.19,36.94,139.44,-0.28,-0.05,0.9,-0.33,3.0,156.94,32.56,-95.31,156.94,32.56,-95.31,0.14,-0.26,-0.68,-0.67
3.0,238.13,25.56,134.31,238.13,25.56,134.31,-0.17,-0.1,0.89,-0.4,3.0,154.69,33.13,-89.81,154.69,33.13,-89.81,0.16,-0.24,-0.66,-0.7
3.0,206.63,18.75,127.62,206.63,18.75,127.62,-0.08,-0.18,0.86,-0.47,3.0,153.19,32.56,-86.75,153.19,32.56,-86.75,0.17,-0.22,-0.65,-0.71
3.0,182.44,13.38,121.37,182.44,13.38,121.37,0.03,-0.22,0.83,-0.51,3.0,150.56,31.0,-83.75,150.56,31.0,-83.75,0.2,-0.17,-0.64,-0.72
3.0,161.31,7.31,113.5,161.31,7.31,113.5,0.11,-0.27,0.77,-0.57,3.0,140.5,30.12,-79.56,140.5,30.12,-79.56,0.26,-0.12,-0.64,-0.72
3.0,158.88,14.06,101.62,158.88,14.06,101.62,0.12,-0.33,0.68,-0.64,3.0,125.81,30.5,-77.12,125.81,30.5,-77.12,0.35,-0.05,-0.63,-0.69
3.0,155.88,15.13,93.81,155.88,15.13,93.81,0.14,-0.34,0.64,-0.68,3.0,117.44,29.62,-76.31,117.44,29.62,-76.31,0.4,0.01,-0.63,-0.66
3.0,158.06,19.12,90.81,158.06,19.12,90.81,0.13,-0.36,0.61,-0.69,3.0,114.81,28.56,-76.56,114.81,28.56,-76.56,0.42,0.04,-0.63,-0.65
3.0,159.5,21.19,89.56,159.5,21.19,89.56,0.12,-0.37,0.59,-0.71,3.0,114.62,26.56,-76.94,114.62,26.56,-76.94,0.42,0.06,-0.63,-0.65
3.0,162.5,25.37,86.25,162.5,25.37,86.25,0.11,-0.39,0.56,-0.72,3.0,107.44,26.25,-77.37,107.44,26.25,-77.37,0.46,0.1,-0.63,-0.62
3.0,164.13,27.44,83.87,164.13,27.44,83.87,0.1,-0.39,0.54,-0.74,3.0,97.12,26.06,-78.94,97.12,26.06,-78.94,0.51,0.17,-0.62,-0.57
3.0,165.63,29.31,80.06,165.63,29.31,80.06,0.11,-0.38,0.52,-0.76,3.0,91.06,25.62,-80.12,91.06,25.62,-80.12,0.54,0.22,-0.61,-0.53
3.0,157.75,24.12,74.75,157.75,24.12,74.75,0.18,-0.36,0.47,-0.78,3.0,84.44,25.25,-81.06,84.44,25.25,-81.06,0.56,0.25,-0.6,-0.5
3.0,148.56,25.0,64.94,148.56,25.0,64.94,0.25,-0.39,0.37,-0.81,3.0,82.94,25.44,-81.62,82.94,25.44,-81.62,0.56,0.25,-0.61,-0.5
3.0,141.88,28.31,55.06,141.88,28.31,55.06,0.29,-0.4,0.27,-0.83,3.0,87.25,25.31,-84.19,87.25,25.31,-84.19,0.52,0.24,-0.64,-0.51
3.0,136.56,27.56,50.25,136.56,27.56,50.25,0.34,-0.39,0.28,-0.81,3.0,92.5,24.44,-85.81,92.5,24.44,-85.81,0.5,0.22,-0.65,-0.53
3.0,136.69,26.62,54.81,136.69,26.62,54.81,0.32,-0.39,0.3,-0.81,3.0,97.12,23.31,-85.81,97.12,23.31,-85.81,0.47,0.21,-0.65,-0.55
3.0,136.38,25.44,54.25,136.38,25.44,54.25,0.33,-0.38,0.29,-0.81,3.0,102.06,21.87,-86.12,102.06,21.87,-86.12,0.45,0.2,-0.66,-0.57
3.0,136.25,25.94,53.69,136.25,25.94,53.69,0.33,-0.39,0.29,-0.81,3.0,106.06,21.5,-86.06,106.06,21.5,-86.06,0.43,0.17,-0.66,-0.59
3.0,136.56,26.87,52.81,136.56,26.87,52.81,0.32,-0.39,0.28,-0.81,3.0,110.81,20.56,-84.75,110.81,20.56,-84.75,0.42,0.16,-0.65,-0.61
3.0,133.88,26.5,53.81,133.88,26.5,53.81,0.34,-0.4,0.27,-0.8,3.0,111.81,20.44,-83.06,111.81,20.44,-83.06,0.42,0.16,-0.65,-0.62
2.0,132.75,27.87,53.5,132.75,27.87,53.5,0.35,-0.41,0.27,-0.8,3.0,110.19,20.69,-82.62,110.19,20.69,-82.62,0.43,0.16,-0.64,-0.61
2.0,129.75,27.06,53.81,129.75,27.06,53.81,0.37,-0.41,0.26,-0.79,3.0,110.06,20.81,-83.44,110.06,20.81,-83.44,0.42,0.16,-0.65,-0.61
2.0,125.56,25.31,53.94,125.56,25.31,53.94,0.4,-0.41,0.26,-0.78,3.0,110.12,22.0,-84.44,110.12,22.0,-84.44,0.42,0.14,-0.66,-0.61
2.0,118.12,21.94,54.38,118.12,21.94,54.38,0.45,-0.4,0.26,-0.75,3.0,112.81,22.69,-83.44,112.81,22.69,-83.44,0.41,0.12,-0.66,-0.62
2.0,115.94,23.75,52.81,115.94,23.75,52.81,0.47,-0.41,0.23,-0.75,3.0,115.44,24.31,-84.25,115.44,24.31,-84.25,0.39,0.09,-0.67,-0.62
2.0,114.44,25.62,50.31,114.44,25.62,50.31,0.51,-0.41,0.2,-0.73,3.0,115.19,25.44,-85.81,115.19,25.44,-85.81,0.39,0.08,-0.68,-0.61
2.0,103.44,19.56,52.19,103.44,19.56,52.19,0.56,-0.41,0.22,-0.69,3.0,112.0,26.62,-87.44,112.0,26.62,-87.44,0.4,0.09,-0.69,-0.6
2.0,101.19,17.37,52.38,101.19,17.37,52.38,0.57,-0.4,0.22,-0.68,3.0,110.44,26.56,-86.69,110.44,26.56,-86.69,0.42,0.1,-0.68,-0.6
2.0,99.0,15.75,52.38,99.0,15.75,52.38,0.58,-0.4,0.22,-0.67,3.0,109.25,25.94,-83.44,109.25,25.94,-83.44,0.44,0.11,-0.65,-0.61
2.0,97.37,17.12,52.56,97.37,17.12,52.56,0.59,-0.41,0.2,-0.66,3.0,108.0,26.75,-80.75,108.0,26.75,-80.75,0.45,0.1,-0.65,-0.61
2.0,96.56,21.12,51.31,96.56,21.12,51.31,0.59,-0.43,0.15,-0.67,3.0,106.0,28.62,-79.87,106.0,28.62,-79.87,0.46,0.09,-0.64,-0.6
2.0,98.19,27.5,47.06,98.19,27.5,47.06,0.59,-0.43,0.09,-0.68,3.0,105.37,29.62,-80.62,105.37,29.62,-80.62,0.45,0.08,-0.65,-0.6
2.0,94.56,29.06,44.06,94.56,29.06,44.06,0.61,-0.43,0.05,-0.67,3.0,108.06,28.62,-80.0,108.06,28.62,-80.0,0.44,0.08,-0.64,-0.62
2.0,94.81,31.44,41.38,94.81,31.44,41.38,0.62,-0.42,0.04,-0.66,3.0,109.69,28.06,-79.44,109.69,28.06,-79.44,0.44,0.07,-0.64,-0.62
2.0,93.19,30.44,42.06,93.19,30.44,42.06,0.62,-0.42,0.04,-0.66,3.0,109.25,28.19,-79.37,109.25,28.19,-79.37,0.44,0.08,-0.64,-0.62
2.0,95.31,31.44,41.5,95.31,31.44,41.5,0.61,-0.42,0.04,-0.67,3.0,108.56,27.94,-79.19,108.56,27.94,-79.19,0.44,0.1,-0.64,-0.63
2.0,97.12,32.75,43.06,97.12,32.75,43.06,0.59,-0.44,0.04,-0.67,3.0,110.06,24.0,-76.62,110.06,24.0,-76.62,0.45,0.12,-0.62,-0.63
2.0,98.0,33.81,44.81,98.0,33.81,44.81,0.58,-0.45,0.04,-0.67,3.0,105.12,24.06,-77.31,105.12,24.06,-77.31,0.47,0.14,-0.62,-0.62
2.0,99.31,34.75,45.69,99.31,34.75,45.69,0.57,-0.46,0.04,-0.68,3.0,102.31,22.81,-76.69,102.31,22.81,-76.69,0.49,0.17,-0.6,-0.61
2.0,99.31,34.81,46.63,99.31,34.81,46.63,0.57,-0.46,0.05,-0.67,3.0,101.81,20.62,-75.87,101.81,20.62,-75.87,0.49,0.19,-0.59,-0.61
2.0,100.19,36.25,46.44,100.19,36.25,46.44,0.57,-0.47,0.04,-0.68,3.0,100.44,20.06,-74.94,100.44,20.06,-74.94,0.51,0.2,-0.58,-0.6
2.0,100.19,36.69,47.5,100.19,36.69,47.5,0.56,-0.48,0.04,-0.67,3.0,98.5,19.56,-73.81,98.5,19.56,-73.81,0.52,0.21,-0.57,-0.6
2.0,100.37,37.0,47.75,100.37,37.0,47.75,0.56,-0.48,0.04,-0.67,3.0,97.37,19.12,-74.37,97.37,19.12,-74.37,0.52,0.23,-0.57,-0.59
2.0,102.0,38.81,46.63,102.0,38.81,46.63,0.55,-0.48,0.03,-0.68,3.0,93.06,19.87,-77.44,93.06,19.87,-77.44,0.54,0.26,-0.58,-0.55
1.0,102.37,38.94,47.25,102.37,38.94,47.25,0.55,-0.49,0.03,-0.68,3.0,87.5,19.69,-82.31,87.5,19.69,-82.31,0.54,0.31,-0.6,-0.5
1.0,102.56,39.25,47.06,102.56,39.25,47.06,0.55,-0.48,0.02,-0.68,3.0,79.56,21.06,-89.12,79.56,21.06,-89.12,0.55,0.36,-0.62,-0.44
1.0,103.87,40.13,45.88,103.87,40.13,45.88,0.54,-0.48,0.02,-0.69,3.0,72.69,22.87,-93.62,72.69,22.87,-93.62,0.55,0.38,-0.62,-0.4
1.0,103.87,40.25,45.44,103.87,40.25,45.44,0.53,-0.48,0.02,-0.7,3.0,72.12,21.44,-93.75,72.12,21.44,-93.75,0.56,0.39,-0.62,-0.4
1.0,104.81,40.0,45.56,104.81,40.0,45.56,0.54,-0.48,0.03,-0.69,3.0,70.81,22.31,-93.81,70.81,22.31,-93.81,0.56,0.39,-0.62,-0.4
1.0,105.75,39.0,46.0,105.75,39.0,46.0,0.53,-0.48,0.04,-0.7,3.0,73.31,21.56,-93.12,73.31,21.56,-93.12,0.55,0.38,-0.62,-0.41
1.0,104.69,36.56,47.31,104.69,36.56,47.31,0.53,-0.47,0.06,-0.7,3.0,75.87,20.75,-92.0,75.87,20.75,-92.0,0.55,0.37,-0.61,-0.43
1.0,104.81,37.63,47.06,104.81,37.63,47.06,0.53,-0.48,0.05,-0.7,3.0,76.5,19.81,-91.62,76.5,19.81,-91.62,0.55,0.38,-0.61,-0.43
1.0,103.62,40.06,46.19,103.62,40.06,46.19,0.54,-0.48,0.02,-0.69,3.0,74.87,19.69,-92.44,74.87,19.69,-92.44,0.55,0.4,-0.61,-0.41
1.0,103.37,41.31,45.25,103.37,41.31,45.25,0.54,-0.49,0.01,-0.69,3.0,67.56,22.5,-95.19,67.56,22.5,-95.19,0.57,0.4,-0.62,-0.36
1.0,103.25,41.13,44.88,103.25,41.13,44.88,0.54,-0.48,0.01,-0.69,3.0,65.25,24.31,-97.69,65.25,24.31,-97.69,0.55,0.41,-0.63,-0.37
1.0,104.19,41.56,44.06,104.19,41.56,44.06,0.54,-0.48,-0.0,-0.69,3.0,73.69,19.94,-98.0,73.69,19.94,-98.0,0.52,0.41,-0.63,-0.41
1.0,104.25,42.25,43.75,104.25,42.25,43.75,0.54,-0.48,-0.01,-0.69,3.0,79.31,17.25,-99.56,79.31,17.25,-99.56,0.49,0.41,-0.65,-0.41
1.0,104.0,42.38,43.5,104.0,42.38,43.5,0.54,-0.48,-0.01,-0.69,3.0,80.87,16.69,-103.12,80.87,16.69,-103.12,0.47,0.42,-0.66,-0.4
2.0,104.31,42.56,43.25,104.31,42.56,43.25,0.54,-0.48,-0.01,-0.69,3.0,82.56,15.31,-106.87,82.56,15.31,-106.87,0.44,0.44,-0.68,-0.39
2.0,103.25,42.06,44.19,103.25,42.06,44.19,0.54,-0.48,-0.01,-0.69,3.0,83.75,14.19,-110.62,83.75,14.19,-110.62,0.42,0.45,-0.69,-0.38
2.0,101.5,38.94,45.69,101.5,38.94,45.69,0.55,-0.47,0.03,-0.69,3.0,84.94,13.31,-113.75,84.94,13.31,-113.75,0.4,0.46,-0.7,-0.37
2.0,106.44,38.88,45.13,106.44,38.88,45.13,0.52,-0.48,0.04,-0.71,3.0,86.94,11.94,-117.37,86.94,11.94,-117.37,0.38,0.46,-0.71,-0.36
2.0,108.56,39.44,49.38,108.56,39.44,49.38,0.51,-0.5,0.08,-0.7,3.0,89.37,10.69,-119.75,89.37,10.69,-119.75,0.36,0.47,-0.72,-0.36
2.0,107.62,36.75,53.25,107.62,36.75,53.25,0.51,-0.49,0.09,-0.7,3.0,91.5,9.94,-119.69,91.5,9.94,-119.69,0.35,0.47,-0.73,-0.36
2.0,109.19,38.13,47.19,109.19,38.13,47.19,0.51,-0.47,0.06,-0.72,3.0,92.12,9.5,-120.25,92.12,9.5,-120.25,0.35,0.47,-0.73,-0.36
2.0,108.5,35.56,45.56,108.5,35.56,45.56,0.52,-0.45,0.08,-0.72,3.0,92.62,9.25,-121.12,92.62,9.25,-121.12,0.34,0.47,-0.73,-0.36
3.0,107.19,31.94,44.0,107.19,31.94,44.0,0.53,-0.43,0.09,-0.72,3.0,91.5,10.06,-122.0,91.5,10.06,-122.0,0.34,0.46,-0.74,-0.34
3.0,104.5,29.12,42.94,104.5,29.12,42.94,0.57,-0.41,0.1,-0.71,3.0,83.75,14.63,-123.81,83.75,14.63,-123.81,0.37,0.44,-0.76,-0.31
3.0,101.44,26.94,40.38,101.44,26.94,40.38,0.59,-0.38,0.09,-0.71,3.0,74.44,19.56,-125.44,74.44,19.56,-125.44,0.38,0.42,-0.77,-0.28
3.0,99.81,25.19,39.88,99.81,25.19,39.88,0.59,-0.38,0.09,-0.7,3.0,70.19,21.94,-126.25,70.19,21.94,-126.25,0.39,0.42,-0.78,-0.27
3.0,100.37,24.62,39.88,100.37,24.62,39.88,0.59,-0.38,0.1,-0.71,3.0,67.75,22.87,-127.69,67.75,22.87,-127.69,0.39,0.41,-0.78,-0.26
3.0,101.44,24.94,39.44,101.44,24.94,39.44,0.58,-0.37,0.1,-0.71,3.0,66.25,23.62,-128.56,66.25,23.62,-128.56,0.39,0.41,-0.79,-0.25
3.0,100.87,24.56,39.13,100.87,24.56,39.13,0.59,-0.37,0.1,-0.71,3.0,64.5,24.44,-129.19,64.5,24.44,-129.19,0.39,0.41,-0.79,-0.24
3.0,102.62,25.94,37.81,102.62,25.94,37.81,0.58,-0.37,0.08,-0.72,3.0,63.81,24.56,-129.56,63.81,24.56,-129.56,0.39,0.41,-0.79,-0.24
3.0,106.62,29.25,36.94,106.62,29.25,36.94,0.54,-0.39,0.06,-0.74,3.0,64.19,24.37,-129.69,64.19,24.37,-129.69,0.39,0.41,-0.79,-0.24
3.0,111.19,33.88,36.44,111.19,33.88,36.44,0.51,-0.41,0.05,-0.75,3.0,64.06,24.37,-129.69,64.06,24.37,-129.69,0.39,0.41,-0.79,-0.24
3.0,112.94,37.88,36.5,112.94,37.88,36.5,0.49,-0.44,0.02,-0.75,3.0,63.5,24.62,-129.75,63.5,24.62,-129.75,0.39,0.41,-0.79,-0.24
3.0,111.87,40.25,38.56,111.87,40.25,38.56,0.5,-0.45,0.01,-0.74,3.0,62.63,25.0,-129.88,62.63,25.0,-129.88,0.39,0.41,-0.79,-0.24
3.0,112.25,41.5,38.38,112.25,41.5,38.38,0.49,-0.46,0.01,-0.74,3.0,62.13,25.12,-129.75,62.13,25.12,-129.75,0.39,0.41,-0.79,-0.24
3.0,113.94,42.38,38.19,113.94,42.38,38.19,0.48,-0.46,0.01,-0.75,3.0,62.5,24.94,-129.63,62.5,24.94,-129.63,0.39,0.41,-0.79,-0.24
3.0,114.0,42.5,37.81,114.0,42.5,37.81,0.48,-0.46,0.01,-0.75,3.0,62.75,24.69,-129.75,62.75,24.69,-129.75,0.39,0.41,-0.79,-0.24
3.0,114.62,42.38,37.56,114.62,42.38,37.56,0.48,-0.45,0.01,-0.75,3.0,62.69,24.62,-130.0,62.69,24.62,-130.0,0.39,0.41,-0.79,-0.24
3.0,115.06,42.44,36.81,115.06,42.44,36.81,0.48,-0.45,0.01,-0.75,3.0,61.69,25.06,-130.06,61.69,25.06,-130.06,0.39,0.41,-0.79,-0.23
3.0,115.12,42.31,37.13,115.12,42.31,37.13,0.48,-0.46,0.01,-0.75,3.0,62.06,24.87,-130.0,62.06,24.87,-130.0,0.39,0.42,-0.79,-0.24
3.0,113.31,41.5,40.38,113.31,41.5,40.38,0.49,-0.46,0.03,-0.74,3.0,62.56,24.5,-130.13,62.56,24.5,-130.13,0.39,0.42,-0.79,-0.24
3.0,114.12,40.25,38.69,114.12,40.25,38.69,0.48,-0.45,0.03,-0.75,3.0,62.75,24.37,-130.5,62.75,24.37,-130.5,0.38,0.42,-0.79,-0.24
3.0,114.06,39.38,37.63,114.06,39.38,37.63,0.49,-0.44,0.03,-0.76,3.0,63.0,24.19,-130.69,63.0,24.19,-130.69,0.38,0.42,-0.79,-0.24
3.0,114.19,39.5,36.75,114.19,39.5,36.75,0.49,-0.44,0.02,-0.75,3.0,63.19,24.06,-130.63,63.19,24.06,-130.63,0.38,0.42,-0.79,-0.24
3.0,113.69,39.56,36.38,113.69,39.56,36.38,0.49,-0.43,0.02,-0.75,3.0,62.69,24.25,-130.56,62.69,24.25,-130.56,0.39,0.42,-0.79,-0.23
3.0,113.06,39.38,36.19,113.06,39.38,36.19,0.5,-0.43,0.02,-0.75,3.0,63.06,24.06,-130.56,63.06,24.06,-130.56,0.38,0.42,-0.79,-0.24
3.0,113.75,39.44,36.13,113.75,39.44,36.13,0.49,-0.43,0.02,-0.76,3.0,63.44,23.75,-130.63,63.44,23.75,-130.63,0.38,0.42,-0.79,-0.24
3.0,114.12,40.0,35.13,114.12,40.0,35.13,0.49,-0.43,0.01,-0.76,3.0,63.31,23.75,-130.94,63.31,23.75,-130.94,0.38,0.42,-0.79,-0.23
3.0,114.87,40.94,32.69,114.87,40.94,32.69,0.48,-0.43,-0.01,-0.76,3.0,62.75,23.87,-131.88,62.75,23.87,-131.88,0.38,0.42,-0.8,-0.23
3.0,115.56,42.25,29.62,115.56,42.25,29.62,0.48,-0.42,-0.03,-0.77,3.0,61.56,24.37,-133.0,61.56,24.37,-133.0,0.37,0.42,-0.8,-0.22
3.0,115.44,44.06,26.19,115.44,44.06,26.19,0.49,-0.42,-0.07,-0.76,3.0,62.13,23.5,-134.25,62.13,23.5,-134.25,0.36,0.42,-0.8,-0.22
3.0,114.56,45.63,24.31,114.56,45.63,24.31,0.49,-0.42,-0.08,-0.76,3.0,63.06,22.5,-135.5,63.06,22.5,-135.5,0.35,0.43,-0.81,-0.22
3.0,113.44,46.13,23.56,113.44,46.13,23.56,0.5,-0.42,-0.09,-0.76,3.0,65.56,20.75,-137.0,65.56,20.75,-137.0,0.32,0.43,-0.81,-0.22
3.0,112.87,46.44,22.31,112.87,46.44,22.31,0.5,-0.41,-0.1,-0.75,3.0,303.56,17.56,-138.88,303.56,17.56,-138.88,0.29,0.44,-0.82,-0.22
3.0,112.56,46.81,21.56,112.56,46.81,21.56,0.5,-0.41,-0.11,-0.75,3.0,304.0,14.88,-140.56,304.0,14.88,-140.56,0.28,0.44,-0.83,-0.23
3.0,112.62,47.31,20.12,112.62,47.31,20.12,0.5,-0.41,-0.12,-0.75,3.0,305.19,12.94,-141.69,305.19,12.94,-141.69,0.25,0.43,-0.83,-0.23
3.0,112.69,46.94,18.37,112.69,46.94,18.37,0.5,-0.4,-0.12,-0.76,3.0,308.38,13.06,-142.81,308.38,13.06,-142.81,0.24,0.41,-0.85,-0.23
3.0,112.87,45.81,16.44,112.87,45.81,16.44,0.5,-0.39,-0.13,-0.76,3.0,312.5,13.44,-144.81,312.5,13.44,-144.81,0.22,0.37,-0.87,-0.23
3.0,112.81,44.38,15.06,112.81,44.38,15.06,0.51,-0.37,-0.13,-0.77,3.0,315.75,5.38,-145.31,315.75,5.38,-145.31,0.16,0.36,-0.88,-0.26
3.0,113.0,43.56,13.25,113.0,43.56,13.25,0.51,-0.35,-0.14,-0.77,3.0,315.31,2.81,-145.19,315.31,2.81,-145.19,0.13,0.37,-0.88,-0.27
3.0,113.81,43.25,7.25,113.81,43.25,7.25,0.51,-0.33,-0.17,-0.78,3.0,312.94,1.12,-143.88,312.94,1.12,-143.88,0.13,0.38,-0.87,-0.28
3.0,114.12,43.31,1.63,114.12,43.31,1.63,0.51,-0.31,-0.2,-0.78,3.0,312.63,-2.63,-144.13,312.63,-2.63,-144.13,0.08,0.39,-0.87,-0.3
3.0,113.81,42.81,-0.31,113.81,42.81,-0.31,0.51,-0.3,-0.2,-0.78,3.0,310.75,-8.88,-145.25,310.75,-8.88,-145.25,0.04,0.4,-0.86,-0.3
3.0,113.44,42.13,-1.37,113.44,42.13,-1.37,0.51,-0.29,-0.21,-0.78,3.0,309.13,-10.81,-146.38,309.13,-10.81,-146.38,0.03,0.41,-0.86,-0.3
3.0,113.44,42.38,-4.63,113.44,42.38,-4.63,0.51,-0.28,-0.23,-0.78,3.0,307.75,-13.5,-148.0,307.75,-13.5,-148.0,-0.0,0.42,-0.86,-0.29
3.0,113.81,42.56,-6.38,113.81,42.56,-6.38,0.5,-0.28,-0.24,-0.78,3.0,306.38,-17.94,-150.75,306.38,-17.94,-150.75,-0.05,0.43,-0.85,-0.29
3.0,115.19,43.13,-6.88,115.19,43.13,-6.88,0.49,-0.29,-0.24,-0.78,3.0,305.69,-21.94,-152.31,305.69,-21.94,-152.31,-0.08,0.44,-0.85,-0.29
3.0,116.19,44.31,-7.19,116.19,44.31,-7.19,0.49,-0.3,-0.24,-0.79,3.0,304.63,-24.75,-153.31,304.63,-24.75,-153.31,-0.1,0.44,-0.84,-0.29
3.0,116.37,44.5,-5.88,116.37,44.5,-5.88,0.49,-0.3,-0.23,-0.79,3.0,303.25,-27.37,-154.25,303.25,-27.37,-154.25,-0.13,0.45,-0.83,-0.29
3.0,116.69,43.88,-4.63,116.69,43.88,-4.63,0.49,-0.3,-0.22,-0.79,3.0,302.94,-30.31,-156.31,302.94,-30.31,-156.31,-0.16,0.45,-0.83,-0.29
3.0,116.94,42.81,-3.5,116.94,42.81,-3.5,0.49,-0.3,-0.21,-0.8,3.0,303.13,-33.38,-157.25,303.13,-33.38,-157.25,-0.18,0.45,-0.83,-0.29
3.0,117.31,41.25,-2.19,117.31,41.25,-2.19,0.49,-0.29,-0.19,-0.8,3.0,302.88,-35.75,-157.88,302.88,-35.75,-157.88,-0.2,0.45,-0.82,-0.3
3.0,117.5,40.19,-1.25,117.5,40.19,-1.25,0.49,-0.29,-0.18,-0.8,3.0,302.13,-39.0,-157.44,302.13,-39.0,-157.44,-0.23,0.45,-0.81,-0.31
3.0,117.75,39.63,0.0,117.75,39.63,0.0,0.49,-0.29,-0.17,-0.81,3.0,253.31,-41.94,-156.25,253.31,-41.94,-156.25,-0.24,0.45,-0.8,-0.32
3.0,117.81,39.5,1.31,117.81,39.5,1.31,0.49,-0.3,-0.16,-0.81,3.0,255.38,-44.31,-155.81,255.38,-44.31,-155.81,-0.26,0.45,-0.79,-0.33
3.0,118.0,39.75,1.88,118.0,39.75,1.88,0.48,-0.3,-0.16,-0.81,3.0,256.31,-45.94,-155.38,256.31,-45.94,-155.38,-0.27,0.45,-0.78,-0.34
3.0,118.12,39.94,1.37,118.12,39.94,1.37,0.48,-0.3,-0.17,-0.81,3.0,257.13,-47.56,-154.94,257.13,-47.56,-154.94,-0.28,0.45,-0.77,-0.35
3.0,118.06,40.25,0.75,118.06,40.25,0.75,0.48,-0.3,-0.17,-0.81,3.0,256.38,-47.63,-154.5,256.38,-47.63,-154.5,-0.27,0.45,-0.77,-0.35
3.0,118.19,40.44,-0.44,118.19,40.44,-0.44,0.48,-0.29,-0.18,-0.81,3.0,255.0,-47.38,-154.19,255.0,-47.38,-154.19,-0.27,0.46,-0.77,-0.35
3.0,118.12,40.5,-1.56,118.12,40.5,-1.56,0.48,-0.29,-0.19,-0.8,3.0,253.75,-47.06,-153.81,253.75,-47.06,-153.81,-0.27,0.46,-0.77,-0.35
3.0,118.0,40.88,-2.31,118.0,40.88,-2.31,0.48,-0.29,-0.2,-0.8,3.0,253.94,-47.56,-153.38,253.94,-47.56,-153.38,-0.27,0.46,-0.77,-0.36
3.0,117.87,41.56,-2.31,117.87,41.56,-2.31,0.48,-0.3,-0.2,-0.8,3.0,253.38,-47.06,-153.31,253.38,-47.06,-153.31,-0.26,0.46,-0.77,-0.35
3.0,117.69,42.19,-2.19,117.69,42.19,-2.19,0.48,-0.3,-0.2,-0.8,3.0,253.0,-47.0,-152.81,253.0,-47.0,-152.81,-0.27,0.45,-0.77,-0.36
3.0,118.44,42.06,-2.25,118.44,42.06,-2.25,0.48,-0.3,-0.2,-0.8,3.0,253.13,-47.75,-151.94,253.13,-47.75,-151.94,-0.27,0.45,-0.77,-0.36
3.0,119.31,41.13,-3.19,119.31,41.13,-3.19,0.47,-0.29,-0.2,-0.81,3.0,252.5,-48.44,-151.0,252.5,-48.44,-151.0,-0.27,0.45,-0.76,-0.37
3.0,120.5,40.31,-5.25,120.5,40.31,-5.25,0.46,-0.28,-0.21,-0.82,3.0,252.25,-49.25,-150.5,252.25,-49.25,-150.5,-0.28,0.46,-0.76,-0.38
3.0,120.94,39.81,-6.63,120.94,39.81,-6.63,0.46,-0.27,-0.21,-0.82,3.0,252.56,-50.81,-149.44,252.56,-50.81,-149.44,-0.28,0.46,-0.75,-0.39
3.0,120.94,39.81,-7.25,120.94,39.81,-7.25,0.46,-0.27,-0.21,-0.82,3.0,252.38,-52.06,-148.25,252.38,-52.06,-148.25,-0.29,0.46,-0.74,-0.4
3.0,121.19,39.81,-6.25,121.19,39.81,-6.25,0.46,-0.28,-0.2,-0.82,3.0,252.94,-54.06,-146.94,252.94,-54.06,-146.94,-0.3,0.46,-0.73,-0.41
3.0,121.44,39.38,-4.75,121.44,39.38,-4.75,0.46,-0.28,-0.19,-0.82,3.0,254.56,-57.0,-144.38,254.56,-57.0,-144.38,-0.32,0.45,-0.72,-0.42
3.0,121.44,39.38,-4.81,121.44,39.38,-4.81,0.46,-0.28,-0.21,-0.82,3.0,257.0,-61.06,-142.81,257.0,-61.06,-142.81,-0.35,0.45,-0.69,-0.44
3.0,120.75,41.0,-7.69,120.75,41.0,-7.69,0.46,-0.28,-0.22,-0.81,3.0,259.75,-65.31,-139.88,259.75,-65.31,-139.88,-0.37,0.45,-0.68,-0.45
3.0,120.69,41.56,-8.75,120.69,41.56,-8.75,0.46,-0.28,-0.23,-0.81,3.0,262.19,-68.44,-137.56,262.19,-68.44,-137.56,-0.4,0.44,-0.66,-0.45
3.0,120.81,41.5,-9.25,120.81,41.5,-9.25,0.46,-0.28,-0.23,-0.81,3.0,264.38,-70.06,-137.56,264.38,-70.06,-137.56,-0.41,0.44,-0.66,-0.45
3.0,120.56,41.81,-8.94,120.56,41.81,-8.94,0.46,-0.28,-0.23,-0.81,3.0,263.5,-69.69,-135.75,263.5,-69.69,-135.75,-0.41,0.44,-0.66,-0.46
3.0,120.56,41.81,-8.69,120.56,41.81,-8.69,0.46,-0.28,-0.23,-0.81,3.0,262.56,-68.94,-135.31,262.56,-68.94,-135.31,-0.4,0.44,-0.66,-0.46
3.0,120.62,42.31,-7.94,120.62,42.31,-7.94,0.46,-0.29,-0.23,-0.81,3.0,264.31,-69.0,-134.38,264.31,-69.0,-134.38,-0.41,0.43,-0.67,-0.45
3.0,120.81,42.81,-7.0,120.81,42.81,-7.0,0.46,-0.3,-0.22,-0.81,3.0,269.81,-72.19,-134.0,269.81,-72.19,-134.0,-0.44,0.41,-0.66,-0.44
3.0,121.0,43.25,-6.63,121.0,43.25,-6.63,0.46,-0.3,-0.22,-0.81,3.0,271.31,-72.19,-136.13,271.31,-72.19,-136.13,-0.45,0.41,-0.66,-0.44
3.0,121.19,43.44,-7.25,121.19,43.44,-7.25,0.45,-0.3,-0.23,-0.81,3.0,271.0,-70.62,-137.13,271.0,-70.62,-137.13,-0.44,0.41,-0.68,-0.43
3.0,121.31,43.31,-8.13,121.31,43.31,-8.13,0.45,-0.29,-0.23,-0.81,3.0,271.81,-69.62,-139.25,271.81,-69.62,-139.25,-0.44,0.4,-0.68,-0.42
3.0,121.44,42.81,-9.13,121.44,42.81,-9.13,0.45,-0.29,-0.24,-0.81,3.0,274.44,-71.19,-140.69,274.44,-71.19,-140.69,-0.45,0.4,-0.68,-0.42
3.0,121.44,42.38,-10.06,121.44,42.38,-10.06,0.45,-0.28,-0.24,-0.81,3.0,276.31,-71.56,-141.44,276.31,-71.56,-141.44,-0.46,0.4,-0.68,-0.41
3.0,121.5,42.13,-10.5,121.5,42.13,-10.5,0.45,-0.28,-0.24,-0.81,3.0,274.56,-68.56,-138.31,274.56,-68.56,-138.31,-0.44,0.38,-0.7,-0.41
3.0,121.56,42.5,-10.38,121.56,42.5,-10.38,0.45,-0.28,-0.24,-0.81,3.0,272.06,-67.94,-135.19,272.06,-67.94,-135.19,-0.44,0.37,-0.7,-0.42
3.0,121.75,42.69,-9.94,121.75,42.69,-9.94,0.45,-0.29,-0.24,-0.81,3.0,270.94,-67.75,-135.38,270.94,-67.75,-135.38,-0.43,0.38,-0.7,-0.42
3.0,121.94,43.0,-9.19,121.94,43.0,-9.19,0.45,-0.29,-0.23,-0.81,3.0,268.94,-64.87,-136.38,268.94,-64.87,-136.38,-0.41,0.37,-0.72,-0.42
3.0,122.06,43.25,-8.69,122.06,43.25,-8.69,0.45,-0.3,-0.23,-0.81,3.0,270.56,-66.75,-134.0,270.56,-66.75,-134.0,-0.43,0.37,-0.71,-0.42
3.0,122.0,43.56,-8.63,122.0,43.56,-8.63,0.45,-0.3,-0.23,-0.81,3.0,277.75,-69.5,-142.38,277.75,-69.5,-142.38,-0.45,0.38,-0.7,-0.4
3.0,121.75,43.88,-8.81,121.75,43.88,-8.81,0.45,-0.3,-0.24,-0.81,3.0,278.63,-65.56,-149.69,278.63,-65.56,-149.69,-0.43,0.38,-0.73,-0.37
3.0,121.62,43.88,-9.38,121.62,43.88,-9.38,0.45,-0.3,-0.24,-0.81,3.0,282.31,-67.44,-153.13,282.31,-67.44,-153.13,-0.45,0.39,-0.72,-0.36
3.0,121.62,43.75,-9.88,121.62,43.75,-9.88,0.45,-0.29,-0.24,-0.81,3.0,283.88,-68.0,-154.63,283.88,-68.0,-154.63,-0.45,0.39,-0.72,-0.35
3.0,121.75,43.5,-10.06,121.75,43.5,-10.06,0.45,-0.29,-0.24,-0.81,3.0,285.0,-68.31,-155.94,285.0,-68.31,-155.94,-0.46,0.39,-0.72,-0.35
3.0,122.0,43.13,-10.69,122.0,43.13,-10.69,0.45,-0.29,-0.24,-0.81,3.0,284.88,-68.19,-155.19,284.88,-68.19,-155.19,-0.46,0.38,-0.72,-0.35
3.0,122.31,42.75,-11.69,122.31,42.75,-11.69,0.45,-0.28,-0.25,-0.81,3.0,283.63,-68.12,-148.69,283.63,-68.12,-148.69,-0.46,0.35,-0.73,-0.36
3.0,122.87,42.56,-12.69,122.87,42.56,-12.69,0.44,-0.28,-0.25,-0.81,3.0,282.56,-68.06,-137.44,282.56,-68.06,-137.44,-0.47,0.32,-0.73,-0.38
3.0,123.25,42.5,-13.19,123.25,42.5,-13.19,0.44,-0.28,-0.25,-0.82,3.0,282.5,-68.37,-131.31,282.5,-68.37,-131.31,-0.49,0.29,-0.73,-0.39
3.0,123.31,42.44,-13.19,123.31,42.44,-13.19,0.44,-0.28,-0.25,-0.82,3.0,283.69,-69.12,-128.0,283.69,-69.12,-128.0,-0.49,0.29,-0.73,-0.38
3.0,123.56,42.44,-12.56,123.56,42.44,-12.56,0.44,-0.28,-0.25,-0.82,3.0,284.63,-69.87,-135.25,284.63,-69.87,-135.25,-0.48,0.32,-0.72,-0.37
3.0,123.87,42.63,-11.63,123.87,42.63,-11.63,0.44,-0.29,-0.24,-0.82,3.0,282.19,-68.06,-144.44,282.19,-68.06,-144.44,-0.44,0.36,-0.73,-0.37
3.0,124.06,42.88,-10.94,124.06,42.88,-10.94,0.43,-0.29,-0.24,-0.82,3.0,275.13,-62.19,-145.06,275.13,-62.19,-145.06,-0.4,0.36,-0.76,-0.37
3.0,124.25,43.06,-10.63,124.25,43.06,-10.63,0.43,-0.29,-0.24,-0.82,3.0,270.63,-58.63,-142.13,270.63,-58.63,-142.13,-0.38,0.34,-0.77,-0.39
3.0,124.37,43.31,-10.25,124.37,43.31,-10.25,0.43,-0.3,-0.23,-0.82,3.0,270.25,-58.75,-138.63,270.25,-58.75,-138.63,-0.4,0.32,-0.77,-0.39
3.0,124.62,43.5,-9.75,124.62,43.5,-9.75,0.43,-0.3,-0.23,-0.82,3.0,271.81,-59.94,-135.25,271.81,-59.94,-135.25,-0.41,0.3,-0.76,-0.4
3.0,124.81,43.69,-9.5,124.81,43.69,-9.5,0.43,-0.3,-0.23,-0.82,3.0,273.25,-60.63,-130.88,273.25,-60.63,-130.88,-0.43,0.27,-0.76,-0.4
3.0,124.87,43.75,-9.44,124.87,43.75,-9.44,0.43,-0.3,-0.23,-0.82,3.0,273.5,-59.81,-126.37,273.5,-59.81,-126.37,-0.43,0.24,-0.77,-0.41
3.0,125.0,43.81,-9.44,125.0,43.81,-9.44,0.43,-0.3,-0.23,-0.82,3.0,273.13,-58.63,-122.62,273.13,-58.63,-122.62,-0.44,0.22,-0.77,-0.41
3.0,125.06,43.94,-9.38,125.06,43.94,-9.38,0.43,-0.3,-0.23,-0.82,3.0,274.0,-59.31,-119.12,274.0,-59.31,-119.12,-0.45,0.21,-0.76,-0.42
3.0,125.31,44.06,-9.44,125.31,44.06,-9.44,0.42,-0.31,-0.23,-0.82,3.0,275.81,-61.38,-117.06,275.81,-61.38,-117.06,-0.47,0.22,-0.75,-0.42
3.0,125.44,44.25,-9.81,125.44,44.25,-9.81,0.42,-0.31,-0.23,-0.82,3.0,277.75,-64.25,-119.12,277.75,-64.25,-119.12,-0.47,0.26,-0.74,-0.41
3.0,125.69,44.44,-10.31,125.69,44.44,-10.31,0.42,-0.31,-0.24,-0.82,3.0,276.31,-63.94,-126.06,276.31,-63.94,-126.06,-0.45,0.29,-0.75,-0.4
3.0,126.0,44.44,-11.13,126.0,44.44,-11.13,0.42,-0.3,-0.24,-0.82,3.0,277.44,-63.94,-132.44,277.44,-63.94,-132.44,-0.45,0.3,-0.75,-0.39
3.0,126.25,44.5,-11.38,126.25,44.5,-11.38,0.42,-0.31,-0.24,-0.82,3.0,280.06,-66.06,-132.25,280.06,-66.06,-132.25,-0.47,0.3,-0.73,-0.39
3.0,126.44,44.56,-11.13,126.44,44.56,-11.13,0.41,-0.31,-0.24,-0.82,3.0,282.63,-69.12,-129.06,282.63,-69.12,-129.06,-0.49,0.3,-0.72,-0.39
3.0,126.56,44.44,-10.88,126.56,44.44,-10.88,0.41,-0.31,-0.24,-0.82,3.0,283.63,-70.62,-126.81,283.63,-70.62,-126.81,-0.5,0.3,-0.71,-0.39
3.0,126.69,44.25,-10.75,126.69,44.25,-10.75,0.41,-0.3,-0.23,-0.83,3.0,285.5,-72.56,-126.62,285.5,-72.56,-126.62,-0.52,0.31,-0.7,-0.38
3.0,126.75,44.06,-10.69,126.75,44.06,-10.69,0.41,-0.3,-0.23,-0.83,3.0,289.38,-76.37,-127.31,289.38,-76.37,-127.31,-0.54,0.31,-0.68,-0.38
3.0,126.81,43.88,-10.63,126.81,43.88,-10.63,0.41,-0.3,-0.23,-0.83,3.0,291.38,-79.0,-121.19,291.38,-79.0,-121.19,-0.55,0.31,-0.68,-0.38
3.0,126.81,43.81,-10.63,126.81,43.81,-10.63,0.41,-0.3,-0.23,-0.83,3.0,291.13,-77.06,-120.62,291.13,-77.06,-120.62,-0.55,0.29,-0.69,-0.37
3.0,126.75,43.88,-10.63,126.75,43.88,-10.63,0.41,-0.3,-0.23,-0.83,3.0,291.5,-76.44,-122.44,291.5,-76.44,-122.44,-0.55,0.29,-0.69,-0.37
3.0,126.69,44.0,-10.63,126.69,44.0,-10.63,0.41,-0.3,-0.23,-0.83,3.0,294.13,-78.94,-121.69,294.13,-78.94,-121.69,-0.57,0.3,-0.67,-0.36
3.0,126.69,44.19,-10.5,126.69,44.19,-10.5,0.41,-0.31,-0.23,-0.83,3.0,299.25,-84.19,-174.81,299.25,-84.19,-174.81,-0.6,0.31,-0.65,-0.34
3.0,126.69,44.5,-10.06,126.69,44.5,-10.06,0.41,-0.31,-0.23,-0.82,3.0,301.25,-85.56,-176.38,301.25,-85.56,-176.38,-0.6,0.32,-0.65,-0.34
3.0,126.69,44.75,-9.63,126.69,44.75,-9.63,0.41,-0.31,-0.23,-0.82,3.0,302.19,-85.75,-177.0,302.19,-85.75,-177.0,-0.6,0.32,-0.65,-0.33
3.0,126.75,45.0,-9.31,126.75,45.0,-9.31,0.41,-0.32,-0.23,-0.82,3.0,303.94,-86.81,-178.31,303.94,-86.81,-178.31,-0.61,0.32,-0.65,-0.32
3.0,126.81,45.13,-9.0,126.81,45.13,-9.0,0.41,-0.32,-0.23,-0.82,3.0,305.31,-87.37,-179.81,305.31,-87.37,-179.81,-0.61,0.33,-0.64,-0.32
3.0,126.87,45.25,-8.69,126.87,45.25,-8.69,0.41,-0.32,-0.22,-0.82,3.0,305.88,-86.62,179.19,305.88,-86.62,179.19,-0.61,0.34,-0.64,-0.31
3.0,126.94,45.38,-8.44,126.94,45.38,-8.44,0.41,-0.32,-0.22,-0.82,3.0,305.75,-85.5,179.56,305.75,-85.5,179.56,-0.6,0.34,-0.65,-0.31
3.0,127.06,45.5,-8.06,127.06,45.5,-8.06,0.41,-0.32,-0.22,-0.82,3.0,306.0,-84.69,179.44,306.0,-84.69,179.44,-0.6,0.34,-0.66,-0.3
3.0,127.12,45.69,-7.81,127.12,45.69,-7.81,0.41,-0.33,-0.22,-0.82,3.0,306.44,-84.5,179.13,306.44,-84.5,179.13,-0.6,0.34,-0.65,-0.3
3.0,127.19,45.81,-7.63,127.19,45.81,-7.63,0.41,-0.33,-0.22,-0.82,3.0,307.06,-84.87,178.63,307.06,-84.87,178.63,-0.61,0.34,-0.65,-0.3
3.0,127.19,46.0,-7.44,127.19,46.0,-7.44,0.41,-0.33,-0.22,-0.82,3.0,308.25,-85.19,178.13,308.25,-85.19,178.13,-0.61,0.34,-0.65,-0.3
3.0,127.19,46.13,-7.31,127.19,46.13,-7.31,0.41,-0.33,-0.22,-0.82,3.0,309.56,-85.31,177.75,309.56,-85.31,177.75,-0.62,0.33,-0.65,-0.29
3.0,127.19,46.19,-7.25,127.19,46.19,-7.25,0.41,-0.33,-0.22,-0.82,3.0,311.06,-85.62,177.44,311.06,-85.62,177.44,-0.62,0.33,-0.65,-0.28
3.0,127.19,46.25,-7.19,127.19,46.25,-7.19,0.41,-0.33,-0.22,-0.82,3.0,313.19,-84.5,174.81,313.19,-84.5,174.81,-0.64,0.35,-0.63,-0.28
3.0,127.12,46.19,-7.13,127.12,46.19,-7.13,0.41,-0.33,-0.22,-0.82,3.0,307.5,-83.94,179.13,307.5,-83.94,179.13,-0.59,0.33,-0.67,-0.3
3.0,127.12,46.25,-7.06,127.12,46.25,-7.06,0.41,-0.33,-0.22,-0.82,3.0,304.38,-83.0,-163.56,304.38,-83.0,-163.56,-0.59,0.33,-0.67,-0.31
3.0,127.12,46.44,-6.94,127.12,46.44,-6.94,0.41,-0.33,-0.22,-0.82,3.0,304.13,-82.31,-163.25,304.13,-82.31,-163.25,-0.58,0.33,-0.68,-0.31
3.0,127.12,46.63,-6.69,127.12,46.63,-6.69,0.41,-0.34,-0.22,-0.82,3.0,303.69,-82.19,-161.0,303.69,-82.19,-161.0,-0.58,0.32,-0.68,-0.31
3.0,127.19,46.81,-6.38,127.19,46.81,-6.38,0.41,-0.34,-0.21,-0.82,3.0,303.88,-83.06,-155.94,303.88,-83.06,-155.94,-0.59,0.32,-0.67,-0.31
3.0,127.25,46.88,-6.31,127.25,46.88,-6.31,0.41,-0.34,-0.21,-0.82,3.0,304.44,-84.31,-177.19,304.44,-84.31,-177.19,-0.6,0.31,-0.67,-0.31
3.0,127.31,46.94,-6.19,127.31,46.94,-6.19,0.41,-0.34,-0.21,-0.82,3.0,305.19,-84.94,-177.44,305.19,-84.94,-177.44,-0.6,0.31,-0.67,-0.31
3.0,127.37,46.94,-6.0,127.37,46.94,-6.0,0.41,-0.34,-0.21,-0.82,3.0,305.56,-84.87,-177.63,305.56,-84.87,-177.63,-0.6,0.31,-0.67,-0.31
3.0,127.37,46.88,-6.06,127.37,46.88,-6.06,0.41,-0.34,-0.21,-0.82,3.0,305.5,-84.81,-177.69,305.5,-84.81,-177.69,-0.6,0.31,-0.67,-0.31
3.0,127.44,46.75,-6.06,127.44,46.75,-6.06,0.41,-0.34,-0.21,-0.82,3.0,305.56,-85.0,-177.88,305.56,-85.0,-177.88,-0.6,0.31,-0.66,-0.31
3.0,127.37,46.69,-6.06,127.37,46.69,-6.06,0.41,-0.34,-0.21,-0.82,3.0,305.75,-85.62,-178.31,305.75,-85.62,-178.31,-0.61,0.31,-0.66,-0.31
3.0,127.44,46.63,-5.88,127.44,46.63,-5.88,0.41,-0.34,-0.21,-0.82,3.0,305.94,-86.25,-178.81,305.94,-86.25,-178.81,-0.61,0.32,-0.66,-0.31
3.0,127.44,46.63,-5.69,127.44,46.63,-5.69,0.41,-0.34,-0.21,-0.82,3.0,305.81,-86.62,-178.94,305.81,-86.62,-178.94,-0.61,0.32,-0.65,-0.31
3.0,127.5,46.63,-5.5,127.5,46.63,-5.5,0.41,-0.34,-0.21,-0.82,3.0,305.63,-86.75,-178.94,305.63,-86.75,-178.94,-0.61,0.32,-0.65,-0.31
3.0,127.5,46.56,-5.38,127.5,46.56,-5.38,0.41,-0.34,-0.21,-0.82,3.0,305.38,-86.75,-178.81,305.38,-86.75,-178.81,-0.61,0.32,-0.65,-0.32
3.0,127.56,46.38,-5.44,127.56,46.38,-5.44,0.41,-0.34,-0.21,-0.82,3.0,305.19,-86.81,-178.88,305.19,-86.81,-178.88,-0.61,0.32,-0.65,-0.32
3.0,127.56,46.25,-5.5,127.56,46.25,-5.5,0.41,-0.34,-0.21,-0.82,3.0,305.38,-87.12,-179.0,305.38,-87.12,-179.0,-0.61,0.32,-0.65,-0.32
3.0,127.56,46.19,-5.5,127.56,46.19,-5.5,0.41,-0.34,-0.21,-0.82,3.0,305.94,-87.81,-179.38,305.94,-87.81,-179.38,-0.62,0.32,-0.64,-0.32
3.0,127.56,46.13,-5.5,127.56,46.13,-5.5,0.41,-0.34,-0.21,-0.82,3.0,306.5,-88.37,-179.69,306.5,-88.37,-179.69,-0.62,0.32,-0.64,-0.31
3.0,127.56,46.06,-5.5,127.56,46.06,-5.5,0.41,-0.34,-0.21,-0.82,3.0,306.69,-88.5,-179.69,306.69,-88.5,-179.69,-0.62,0.32,-0.64,-0.31
3.0,127.5,46.06,-5.56,127.5,46.06,-5.56,0.41,-0.34,-0.21,-0.82,3.0,306.75,-88.69,-179.69,306.75,-88.69,-179.69,-0.63,0.32,-0.64,-0.31
3.0,127.5,46.06,-5.63,127.5,46.06,-5.63,0.41,-0.33,-0.21,-0.82,3.0,307.0,-88.81,-179.69,307.0,-88.81,-179.69,-0.63,0.32,-0.64,-0.31
3.0,127.5,46.06,-5.81,127.5,46.06,-5.81,0.41,-0.33,-0.21,-0.82,3.0,307.25,-88.94,-179.75,307.25,-88.94,-179.75,-0.63,0.31,-0.64,-0.31
3.0,127.5,46.06,-5.94,127.5,46.06,-5.94,0.41,-0.33,-0.21,-0.82,3.0,307.44,-89.0,-179.81,307.44,-89.0,-179.81,-0.63,0.31,-0.64,-0.31
3.0,127.5,46.06,-6.13,127.5,46.06,-6.13,0.41,-0.33,-0.21,-0.82,3.0,307.44,-89.06,-179.88,307.44,-89.06,-179.88,-0.63,0.32,-0.64,-0.31
3.0,127.5,46.0,-6.25,127.5,46.0,-6.25,0.41,-0.33,-0.21,-0.82,3.0,307.0,-89.12,-179.81,307.0,-89.12,-179.81,-0.63,0.32,-0.64,-0.31
3.0,127.44,45.81,-6.38,127.44,45.81,-6.38,0.41,-0.33,-0.21,-0.82,3.0,306.69,-89.44,-179.81,306.69,-89.44,-179.81,-0.63,0.32,-0.63,-0.32
3.0,127.37,45.69,-6.56,127.37,45.69,-6.56,0.41,-0.33,-0.21,-0.82,3.0,306.44,-89.5,-0.37,306.44,-89.5,-0.37,-0.63,0.31,-0.63,-0.32
3.0,127.31,45.63,-6.75,127.31,45.63,-6.75,0.41,-0.33,-0.21,-0.82,3.0,306.63,-88.87,-0.5,306.63,-88.87,-0.5,-0.64,0.31,-0.63,-0.32
3.0,127.31,45.63,-6.81,127.31,45.63,-6.81,0.41,-0.33,-0.21,-0.82,3.0,306.88,-88.19,-0.31,306.88,-88.19,-0.31,-0.64,0.31,-0.62,-0.32
3.0,127.25,45.63,-6.75,127.25,45.63,-6.75,0.41,-0.33,-0.21,-0.82,3.0,306.94,-87.69,-0.12,306.94,-87.69,-0.12,-0.65,0.31,-0.62,-0.32
3.0,127.25,45.63,-6.81,127.25,45.63,-6.81,0.41,-0.33,-0.21,-0.82,3.0,307.0,-87.25,-0.12,307.0,-87.25,-0.12,-0.65,0.31,-0.62,-0.32
3.0,127.25,45.63,-6.88,127.25,45.63,-6.88,0.41,-0.33,-0.21,-0.82,3.0,306.94,-87.0,-0.31,306.94,-87.0,-0.31,-0.65,0.3,-0.62,-0.32
3.0,127.19,45.63,-6.94,127.19,45.63,-6.94,0.41,-0.33,-0.21,-0.82,3.0,306.75,-86.75,-0.69,306.75,-86.75,-0.69,-0.65,0.3,-0.62,-0.33
3.0,127.19,45.56,-7.06,127.19,45.56,-7.06,0.41,-0.33,-0.21,-0.82,3.0,306.5,-86.31,-1.06,306.5,-86.31,-1.06,-0.65,0.3,-0.62,-0.33
3.0,127.12,45.5,-7.13,127.12,45.5,-7.13,0.41,-0.33,-0.22,-0.82,3.0,306.56,-85.81,-1.12,306.56,-85.81,-1.12,-0.65,0.29,-0.61,-0.33
3.0,127.06,45.44,-7.25,127.06,45.44,-7.25,0.41,-0.33,-0.22,-0.82,3.0,306.94,-85.37,-1.06,306.94,-85.37,-1.06,-0.66,0.29,-0.61,-0.33
3.0,126.94,45.38,-7.44,126.94,45.38,-7.44,0.41,-0.32,-0.22,-0.82,3.0,307.13,-85.25,-0.94,307.13,-85.25,-0.94,-0.66,0.29,-0.61,-0.33
3.0,126.56,45.19,-7.94,126.56,45.19,-7.94,0.41,-0.32,-0.22,-0.82,3.0,307.06,-85.56,-0.88,307.06,-85.56,-0.88,-0.66,0.29,-0.61,-0.33
3.0,126.5,45.13,-7.88,126.5,45.13,-7.88,0.41,-0.32,-0.22,-0.82,3.0,306.69,-85.94,-0.94,306.69,-85.94,-0.94,-0.65,0.3,-0.62,-0.33
3.0,126.5,45.19,-7.75,126.5,45.19,-7.75,0.41,-0.32,-0.22,-0.82,3.0,306.44,-86.19,-0.94,306.44,-86.19,-0.94,-0.65,0.3,-0.62,-0.33
3.0,126.5,45.31,-7.63,126.5,45.31,-7.63,0.41,-0.32,-0.22,-0.82,3.0,306.31,-86.25,-1.0,306.31,-86.25,-1.0,-0.65,0.3,-0.62,-0.33
3.0,126.5,45.44,-7.69,126.5,45.44,-7.69,0.41,-0.32,-0.22,-0.82,3.0,306.25,-86.12,-1.06,306.25,-86.12,-1.06,-0.65,0.3,-0.62,-0.33
3.0,126.5,45.5,-7.63,126.5,45.5,-7.63,0.41,-0.32,-0.22,-0.82,3.0,306.38,-86.0,-1.12,306.38,-86.0,-1.12,-0.65,0.3,-0.62,-0.33
3.0,126.5,45.56,-7.63,126.5,45.56,-7.63,0.41,-0.32,-0.22,-0.82,3.0,306.44,-85.94,-1.12,306.44,-85.94,-1.12,-0.65,0.29,-0.62,-0.33
3.0,126.5,45.63,-7.63,126.5,45.63,-7.63,0.41,-0.32,-0.22,-0.82,3.0,306.5,-86.06,-1.19,306.5,-86.06,-1.19,-0.65,0.29,-0.62,-0.33
3.0,126.44,45.69,-7.56,126.44,45.69,-7.56,0.41,-0.33,-0.22,-0.82,3.0,306.5,-86.31,-1.19,306.5,-86.31,-1.19,-0.65,0.3,-0.62,-0.33
3.0,126.44,45.75,-7.5,126.44,45.75,-7.5,0.41,-0.33,-0.22,-0.82,3.0,306.31,-86.69,-1.19,306.31,-86.69,-1.19,-0.65,0.3,-0.62,-0.33
3.0,126.44,45.75,-7.56,126.44,45.75,-7.56,0.41,-0.33,-0.22,-0.82,3.0,306.19,-86.87,-1.19,306.19,-86.87,-1.19,-0.65,0.3,-0.62,-0.33
3.0,126.44,45.75,-7.69,126.44,45.75,-7.69,0.41,-0.33,-0.22,-0.82,3.0,306.0,-87.0,-1.12,306.0,-87.0,-1.12,-0.64,0.3,-0.62,-0.33
3.0,126.44,45.75,-7.69,126.44,45.75,-7.69,0.41,-0.32,-0.22,-0.82,3.0,305.81,-87.0,-1.12,305.81,-87.0,-1.12,-0.64,0.3,-0.62,-0.33
3.0,126.44,45.75,-7.63,126.44,45.75,-7.63,0.41,-0.33,-0.22,-0.82,3.0,305.56,-86.62,-1.25,305.56,-86.62,-1.25,-0.65,0.3,-0.62,-0.33
3.0,126.5,45.75,-7.63,126.5,45.75,-7.63,0.41,-0.32,-0.22,-0.82,3.0,305.19,-86.19,-1.44,305.19,-86.19,-1.44,-0.65,0.3,-0.62,-0.34
3.0,126.44,45.75,-7.69,126.44,45.75,-7.69,0.41,-0.32,-0.22,-0.82,3.0,304.94,-85.94,-1.5,304.94,-85.94,-1.5,-0.65,0.3,-0.61,-0.34
3.0,126.44,45.75,-7.69,126.44,45.75,-7.69,0.41,-0.32,-0.22,-0.82,3.0,304.75,-86.0,-1.63,304.75,-86.0,-1.63,-0.65,0.3,-0.62,-0.34
3.0,126.44,45.75,-7.69,126.44,45.75,-7.69,0.41,-0.33,-0.22,-0.82,3.0,304.38,-86.25,-1.63,304.38,-86.25,-1.63,-0.64,0.3,-0.62,-0.34
3.0,126.5,45.75,-7.69,126.5,45.75,-7.69,0.41,-0.33,-0.22,-0.82,3.0,304.19,-86.5,-1.69,304.19,-86.5,-1.69,-0.64,0.3,-0.62,-0.34
3.0,126.5,45.75,-7.69,126.5,45.75,-7.69,0.41,-0.33,-0.22,-0.82,3.0,304.13,-86.5,-1.63,304.13,-86.5,-1.63,-0.64,0.3,-0.62,-0.34
3.0,126.5,45.81,-7.69,126.5,45.81,-7.69,0.41,-0.33,-0.22,-0.82,3.0,304.19,-86.44,-1.63,304.19,-86.44,-1.63,-0.64,0.3,-0.62,-0.34
3.0,126.5,45.81,-7.69,126.5,45.81,-7.69,0.41,-0.33,-0.22,-0.82,3.0,304.19,-86.56,-1.56,304.19,-86.56,-1.56,-0.64,0.31,-0.62,-0.34
3.0,126.5,45.88,-7.75,126.5,45.88,-7.75,0.41,-0.33,-0.22,-0.82,3.0,304.19,-86.75,-1.5,304.19,-86.75,-1.5,-0.64,0.31,-0.62,-0.34
3.0,126.44,45.94,-7.88,126.44,45.94,-7.88,0.41,-0.33,-0.22,-0.82,3.0,304.13,-87.06,-1.5,304.13,-87.06,-1.5,-0.64,0.31,-0.62,-0.34
3.0,126.5,46.0,-7.88,126.5,46.0,-7.88,0.41,-0.33,-0.22,-0.82,3.0,304.0,-87.56,-1.5,304.0,-87.56,-1.5,-0.63,0.31,-0.62,-0.34
3.0,126.5,46.13,-7.81,126.5,46.13,-7.81,0.41,-0.33,-0.22,-0.82,3.0,303.63,-88.12,-1.44,303.63,-88.12,-1.44,-0.63,0.32,-0.63,-0.34
3.0,126.5,46.13,-7.81,126.5,46.13,-7.81,0.41,-0.33,-0.22,-0.82,3.0,303.5,-88.31,-1.5,303.5,-88.31,-1.5,-0.63,0.32,-0.63,-0.34
3.0,126.5,46.19,-7.81,126.5,46.19,-7.81,0.41,-0.33,-0.22,-0.82,3.0,303.44,-88.37,-1.56,303.44,-88.37,-1.56,-0.62,0.32,-0.63,-0.34
3.0,126.56,46.19,-7.75,126.56,46.19,-7.75,0.41,-0.33,-0.22,-0.82,3.0,303.25,-88.37,-178.38,303.25,-88.37,-178.38,-0.62,0.32,-0.63,-0.34
3.0,126.56,46.13,-7.75,126.56,46.13,-7.75,0.41,-0.33,-0.22,-0.82,3.0,303.19,-88.44,-178.44,303.19,-88.44,-178.44,-0.62,0.32,-0.63,-0.34
3.0,126.5,46.13,-7.75,126.5,46.13,-7.75,0.41,-0.33,-0.22,-0.82,3.0,303.13,-88.37,-178.44,303.13,-88.37,-178.44,-0.62,0.32,-0.63,-0.34
3.0,126.5,46.13,-7.81,126.5,46.13,-7.81,0.41,-0.33,-0.22,-0.82,3.0,303.13,-88.19,-178.31,303.13,-88.19,-178.31,-0.62,0.32,-0.63,-0.33
3.0,126.44,46.19,-7.75,126.44,46.19,-7.75,0.41,-0.33,-0.22,-0.82,3.0,303.13,-87.87,-178.13,303.13,-87.87,-178.13,-0.62,0.32,-0.64,-0.33
3.0,126.44,46.25,-7.69,126.44,46.25,-7.69,0.41,-0.33,-0.22,-0.82,3.0,303.06,-87.56,-177.94,303.06,-87.56,-177.94,-0.61,0.32,-0.64,-0.33
3.0,126.44,46.25,-7.63,126.44,46.25,-7.63,0.41,-0.33,-0.22,-0.82,3.0,303.06,-87.31,-177.88,303.06,-87.31,-177.88,-0.61,0.32,-0.64,-0.33
3.0,126.44,46.31,-7.63,126.44,46.31,-7.63,0.41,-0.33,-0.22,-0.82,3.0,303.25,-87.37,-177.88,303.25,-87.37,-177.88,-0.61,0.32,-0.64,-0.33
3.0,126.44,46.38,-7.63,126.44,46.38,-7.63,0.41,-0.33,-0.22,-0.82,3.0,303.38,-87.56,-178.0,303.38,-87.56,-178.0,-0.61,0.32,-0.64,-0.33
3.0,126.5,46.44,-7.56,126.5,46.44,-7.56,0.41,-0.33,-0.22,-0.82,3.0,303.44,-87.56,-178.06,303.44,-87.56,-178.06,-0.61,0.32,-0.64,-0.33
3.0,126.5,46.44,-7.56,126.5,46.44,-7.56,0.41,-0.33,-0.22,-0.82,3.0,303.44,-87.5,-178.06,303.44,-87.5,-178.06,-0.61,0.32,-0.64,-0.33
3.0,126.5,46.44,-7.56,126.5,46.44,-7.56,0.41,-0.33,-0.22,-0.82,3.0,303.44,-87.25,-178.06,303.44,-87.25,-178.06,-0.61,0.32,-0.64,-0.33
3.0,126.56,46.5,-7.5,126.56,46.5,-7.5,0.41,-0.33,-0.22,-0.82,3.0,303.25,-86.94,-178.06,303.25,-86.94,-178.06,-0.61,0.32,-0.65,-0.33
3.0,126.56,46.44,-7.56,126.56,46.44,-7.56,0.41,-0.33,-0.22,-0.82,3.0,303.06,-86.62,-178.06,303.06,-86.62,-178.06,-0.61,0.32,-0.65,-0.33
3.0,126.56,46.44,-7.63,126.56,46.44,-7.63,0.41,-0.33,-0.22,-0.82,3.0,302.94,-86.31,-178.06,302.94,-86.31,-178.06,-0.6,0.33,-0.65,-0.33
3.0,126.56,46.44,-7.63,126.56,46.44,-7.63,0.41,-0.33,-0.22,-0.82,3.0,302.75,-86.0,-178.06,302.75,-86.0,-178.06,-0.6,0.33,-0.65,-0.33
3.0,126.56,46.5,-7.63,126.56,46.5,-7.63,0.41,-0.33,-0.22,-0.82,3.0,302.69,-85.81,-178.0,302.69,-85.81,-178.0,-0.6,0.33,-0.65,-0.33
3.0,126.56,46.5,-7.63,126.56,46.5,-7.63,0.41,-0.33,-0.22,-0.82,3.0,302.56,-85.5,-177.94,302.56,-85.5,-177.94,-0.6,0.33,-0.65,-0.33
3.0,126.62,46.56,-7.56,126.62,46.56,-7.56,0.41,-0.33,-0.22,-0.82,3.0,302.75,-85.06,-178.0,302.75,-85.06,-178.0,-0.6,0.33,-0.66,-0.33
3.0,126.62,46.63,-7.5,126.62,46.63,-7.5,0.41,-0.33,-0.22,-0.82,3.0,302.69,-84.81,-177.94,302.69,-84.81,-177.94,-0.59,0.33,-0.66,-0.32
3.0,126.69,46.69,-7.5,126.69,46.69,-7.5,0.41,-0.33,-0.22,-0.82,3.0,302.75,-84.75,-178.0,302.75,-84.75,-178.0,-0.59,0.33,-0.66,-0.32
3.0,126.69,46.69,-7.44,126.69,46.69,-7.44,0.41,-0.33,-0.22,-0.82,3.0,302.75,-84.62,-178.0,302.75,-84.62,-178.0,-0.59,0.33,-0.66,-0.32
3.0,126.75,46.75,-7.38,126.75,46.75,-7.38,0.41,-0.33,-0.22,-0.82,3.0,302.69,-84.5,-178.06,302.69,-84.5,-178.06,-0.59,0.33,-0.66,-0.32
3.0,126.75,46.75,-7.25,126.75,46.75,-7.25,0.41,-0.33,-0.22,-0.82,3.0,302.69,-84.37,-178.13,302.69,-84.37,-178.13,-0.59,0.33,-0.66,-0.32
3.0,126.81,46.69,-7.25,126.81,46.69,-7.25,0.41,-0.33,-0.22,-0.82,3.0,302.56,-84.31,-178.19,302.56,-84.31,-178.19,-0.59,0.34,-0.66,-0.32
3.0,126.75,46.63,-7.25,126.75,46.63,-7.25,0.41,-0.33,-0.22,-0.82,3.0,302.5,-84.25,-178.31,302.5,-84.25,-178.31,-0.59,0.34,-0.66,-0.32
3.0,126.81,46.69,-7.25,126.81,46.69,-7.25,0.41,-0.33,-0.22,-0.82,3.0,302.44,-84.19,-178.31,302.44,-84.19,-178.31,-0.59,0.34,-0.66,-0.32
3.0,126.81,46.75,-7.25,126.81,46.75,-7.25,0.41,-0.33,-0.22,-0.82,3.0,302.44,-84.12,-178.38,302.44,-84.12,-178.38,-0.59,0.34,-0.66,-0.32
3.0,126.81,46.75,-7.25,126.81,46.75,-7.25,0.41,-0.33,-0.22,-0.82,3.0,302.44,-84.06,-178.38,302.44,-84.06,-178.38,-0.59,0.34,-0.66,-0.32
3.0,126.81,46.81,-7.25,126.81,46.81,-7.25,0.41,-0.34,-0.22,-0.82,3.0,302.5,-83.87,-178.44,302.5,-83.87,-178.44,-0.59,0.34,-0.66,-0.32
3.0,126.81,46.88,-7.25,126.81,46.88,-7.25,0.41,-0.34,-0.22,-0.82,3.0,302.5,-83.62,-178.44,302.5,-83.62,-178.44,-0.59,0.34,-0.66,-0.32
3.0,126.81,46.94,-7.25,126.81,46.94,-7.25,0.41,-0.34,-0.22,-0.82,3.0,302.44,-83.31,-178.44,302.44,-83.31,-178.44,-0.58,0.34,-0.66,-0.32
3.0,126.87,46.94,-7.25,126.87,46.94,-7.25,0.41,-0.34,-0.22,-0.82,3.0,302.38,-83.06,-167.25,302.38,-83.06,-167.25,-0.58,0.34,-0.66,-0.32
3.0,126.87,46.94,-7.31,126.87,46.94,-7.31,0.41,-0.34,-0.22,-0.82,3.0,302.38,-82.75,-167.75,302.38,-82.75,-167.75,-0.58,0.34,-0.67,-0.32
3.0,126.87,46.94,-7.31,126.87,46.94,-7.31,0.41,-0.34,-0.22,-0.82,3.0,302.38,-82.44,-168.25,302.38,-82.44,-168.25,-0.58,0.34,-0.67,-0.32
3.0,126.87,46.94,-7.31,126.87,46.94,-7.31,0.41,-0.34,-0.22,-0.82,3.0,302.38,-82.12,-168.56,302.38,-82.12,-168.56,-0.58,0.35,-0.67,-0.32
3.0,126.87,47.0,-7.31,126.87,47.0,-7.31,0.41,-0.34,-0.22,-0.82,3.0,301.69,-81.25,-168.31,301.69,-81.25,-168.31,-0.57,0.35,-0.67,-0.32
3.0,126.87,47.06,-7.31,126.87,47.06,-7.31,0.41,-0.34,-0.22,-0.82,3.0,300.44,-80.06,-167.44,300.44,-80.06,-167.44,-0.56,0.36,-0.68,-0.32
3.0,126.87,47.06,-7.31,126.87,47.06,-7.31,0.41,-0.34,-0.22,-0.82,3.0,300.06,-78.94,-167.88,300.06,-78.94,-167.88,-0.55,0.36,-0.68,-0.32
3.0,126.87,47.06,-7.31,126.87,47.06,-7.31,0.41,-0.34,-0.22,-0.82,3.0,300.0,-78.0,-167.94,300.0,-78.0,-167.94,-0.54,0.36,-0.69,-0.31
3.0,126.94,47.13,-7.19,126.94,47.13,-7.19,0.41,-0.34,-0.22,-0.82,3.0,299.69,-77.12,-167.94,299.69,-77.12,-167.94,-0.54,0.36,-0.69,-0.31
3.0,126.94,47.13,-7.25,126.94,47.13,-7.25,0.41,-0.34,-0.22,-0.82,3.0,299.63,-76.62,-168.38,299.63,-76.62,-168.38,-0.54,0.36,-0.7,-0.31
3.0,126.94,47.13,-7.25,126.94,47.13,-7.25,0.41,-0.34,-0.22,-0.82,3.0,299.63,-76.31,-168.25,299.63,-76.31,-168.25,-0.54,0.36,-0.7,-0.31
3.0,126.94,47.13,-7.25,126.94,47.13,-7.25,0.41,-0.34,-0.22,-0.82,3.0,299.75,-76.25,-168.38,299.75,-76.25,-168.38,-0.54,0.36,-0.7,-0.31
3.0,127.0,47.13,-7.25,127.0,47.13,-7.25,0.41,-0.34,-0.22,-0.82,3.0,300.06,-76.37,-168.69,300.06,-76.37,-168.69,-0.54,0.36,-0.7,-0.31
3.0,127.0,47.13,-7.25,127.0,47.13,-7.25,0.41,-0.34,-0.22,-0.82,3.0,300.38,-76.56,-169.13,300.38,-76.56,-169.13,-0.54,0.36,-0.7,-0.31
3.0,127.0,47.13,-7.31,127.0,47.13,-7.31,0.41,-0.34,-0.22,-0.82,3.0,300.38,-76.5,-169.69,300.38,-76.5,-169.69,-0.54,0.36,-0.7,-0.31
3.0,127.0,47.13,-7.25,127.0,47.13,-7.25,0.41,-0.34,-0.22,-0.82,3.0,300.19,-76.37,-170.06,300.19,-76.37,-170.06,-0.54,0.36,-0.7,-0.31
3.0,127.0,47.19,-7.31,127.0,47.19,-7.31,0.41,-0.34,-0.22,-0.82,3.0,300.25,-76.31,-170.56,300.25,-76.31,-170.56,-0.54,0.36,-0.7,-0.31
3.0,127.0,47.19,-7.31,127.0,47.19,-7.31,0.41,-0.34,-0.22,-0.82,3.0,300.44,-76.25,-170.94,300.44,-76.25,-170.94,-0.54,0.36,-0.7,-0.31
3.0,127.06,47.25,-7.25,127.06,47.25,-7.25,0.41,-0.34,-0.22,-0.82,3.0,300.56,-76.19,-171.13,300.56,-76.19,-171.13,-0.54,0.36,-0.7,-0.31
3.0,127.06,47.25,-7.25,127.06,47.25,-7.25,0.41,-0.34,-0.22,-0.82,3.0,300.56,-76.06,-170.94,300.56,-76.06,-170.94,-0.54,0.36,-0.7,-0.31
3.0,127.06,47.31,-7.25,127.06,47.31,-7.25,0.41,-0.34,-0.22,-0.82,3.0,300.13,-75.81,-169.63,300.13,-75.81,-169.63,-0.53,0.36,-0.7,-0.31
3.0,127.06,47.31,-7.25,127.06,47.31,-7.25,0.41,-0.34,-0.22,-0.82,3.0,299.88,-75.5,-169.25,299.88,-75.5,-169.25,-0.53,0.36,-0.7,-0.31
3.0,127.06,47.31,-7.31,127.06,47.31,-7.31,0.41,-0.34,-0.22,-0.82,3.0,299.63,-75.06,-169.19,299.63,-75.06,-169.19,-0.53,0.36,-0.7,-0.31
3.0,127.06,47.38,-7.25,127.06,47.38,-7.25,0.41,-0.34,-0.22,-0.82,3.0,299.5,-74.56,-169.38,299.5,-74.56,-169.38,-0.52,0.37,-0.71,-0.31
3.0,127.06,47.38,-7.25,127.06,47.38,-7.25,0.41,-0.34,-0.22,-0.82,3.0,299.38,-74.12,-169.69,299.38,-74.12,-169.69,-0.52,0.37,-0.71,-0.3
3.0,127.06,47.38,-7.31,127.06,47.38,-7.31,0.41,-0.34,-0.22,-0.82,3.0,299.38,-73.87,-169.94,299.38,-73.87,-169.94,-0.52,0.37,-0.71,-0.3
3.0,127.06,47.38,-7.31,127.06,47.38,-7.31,0.41,-0.34,-0.22,-0.82,3.0,299.31,-73.62,-170.19,299.31,-73.62,-170.19,-0.52,0.37,-0.71,-0.3
3.0,127.06,47.38,-7.31,127.06,47.38,-7.31,0.41,-0.34,-0.22,-0.82,3.0,299.25,-73.37,-170.44,299.25,-73.37,-170.44,-0.52,0.37,-0.71,-0.3
3.0,127.06,47.44,-7.31,127.06,47.44,-7.31,0.41,-0.34,-0.22,-0.82,3.0,299.31,-73.31,-170.69,299.31,-73.31,-170.69,-0.52,0.37,-0.71,-0.3
3.0,127.06,47.5,-7.31,127.06,47.5,-7.31,0.41,-0.34,-0.22,-0.82,3.0,299.44,-73.31,-170.75,299.44,-73.31,-170.75,-0.52,0.37,-0.71,-0.3
3.0,127.06,47.5,-7.31,127.06,47.5,-7.31,0.41,-0.34,-0.22,-0.82,3.0,299.63,-73.25,-171.0,299.63,-73.25,-171.0,-0.52,0.37,-0.71,-0.3
3.0,127.06,47.44,-7.38,127.06,47.44,-7.38,0.41,-0.34,-0.22,-0.82,3.0,299.81,-73.19,-171.38,299.81,-73.19,-171.38,-0.52,0.37,-0.71,-0.3
3.0,127.06,47.44,-7.44,127.06,47.44,-7.44,0.41,-0.34,-0.22,-0.82,3.0,299.81,-72.94,-171.5,299.81,-72.94,-171.5,-0.52,0.37,-0.71,-0.3
3.0,127.06,47.44,-7.5,127.06,47.44,-7.5,0.41,-0.34,-0.22,-0.82,3.0,299.75,-72.69,-171.5,299.75,-72.69,-171.5,-0.51,0.37,-0.71,-0.3
3.0,127.0,47.38,-7.5,127.0,47.38,-7.5,0.41,-0.34,-0.22,-0.82,3.0,299.63,-72.5,-171.56,299.63,-72.5,-171.56,-0.51,0.37,-0.71,-0.3
3.0,127.0,47.31,-7.38,127.0,47.31,-7.38,0.41,-0.34,-0.22,-0.82,3.0,299.5,-72.37,-171.56,299.5,-72.37,-171.56,-0.51,0.37,-0.71,-0.3
3.0,126.94,47.38,-7.19,126.94,47.38,-7.19,0.41,-0.34,-0.22,-0.82,3.0,299.44,-72.31,-171.5,299.44,-72.31,-171.5,-0.51,0.37,-0.71,-0.3
3.0,126.94,47.44,-6.94,126.94,47.44,-6.94,0.41,-0.34,-0.22,-0.82,3.0,299.44,-72.31,-171.38,299.44,-72.31,-171.38,-0.51,0.37,-0.71,-0.3
3.0,126.94,47.44,-6.94,126.94,47.44,-6.94,0.41,-0.34,-0.22,-0.82,3.0,299.31,-72.25,-171.31,299.31,-72.25,-171.31,-0.51,0.37,-0.72,-0.3
3.0,126.94,47.38,-6.94,126.94,47.38,-6.94,0.41,-0.34,-0.22,-0.82,3.0,299.31,-72.06,-171.31,299.31,-72.06,-171.31,-0.51,0.37,-0.72,-0.3
3.0,126.94,47.38,-7.0,126.94,47.38,-7.0,0.41,-0.34,-0.22,-0.82,3.0,299.38,-71.81,-171.38,299.38,-71.81,-171.38,-0.51,0.37,-0.72,-0.3
3.0,127.0,47.5,-6.88,127.0,47.5,-6.88,0.41,-0.34,-0.22,-0.82,3.0,299.69,-71.37,-171.56,299.69,-71.37,-171.56,-0.51,0.37,-0.72,-0.29
3.0,127.12,47.75,-6.44,127.12,47.75,-6.44,0.41,-0.35,-0.22,-0.82,3.0,301.13,-70.5,-172.75,301.13,-70.5,-172.75,-0.5,0.37,-0.73,-0.28
3.0,127.12,47.94,-5.44,127.12,47.94,-5.44,0.41,-0.35,-0.21,-0.82,3.0,305.19,-69.56,-177.13,305.19,-69.56,-177.13,-0.51,0.36,-0.74,-0.26
3.0,127.12,48.0,-4.31,127.12,48.0,-4.31,0.41,-0.35,-0.2,-0.82,3.0,309.5,-68.62,178.13,309.5,-68.62,178.13,-0.51,0.36,-0.74,-0.24
3.0,127.31,47.75,-3.63,127.31,47.75,-3.63,0.41,-0.35,-0.2,-0.82,3.0,309.44,-66.87,178.19,309.44,-66.87,178.19,-0.5,0.37,-0.75,-0.24
3.0,127.25,46.56,-4.75,127.25,46.56,-4.75,0.41,-0.34,-0.2,-0.82,3.0,307.94,-65.44,-179.69,307.94,-65.44,-179.69,-0.49,0.37,-0.76,-0.24
3.0,127.12,45.5,-5.06,127.12,45.5,-5.06,0.41,-0.33,-0.2,-0.83,3.0,304.06,-65.06,-175.31,304.06,-65.06,-175.31,-0.48,0.37,-0.76,-0.25
3.0,127.06,45.25,-5.38,127.06,45.25,-5.38,0.41,-0.33,-0.2,-0.82,3.0,300.25,-64.37,-172.0,300.25,-64.37,-172.0,-0.46,0.37,-0.76,-0.27
3.0,127.12,46.06,-4.38,127.12,46.06,-4.38,0.41,-0.34,-0.2,-0.82,3.0,297.56,-63.56,-170.25,297.56,-63.56,-170.25,-0.45,0.38,-0.76,-0.27
3.0,127.25,47.19,-2.5,127.25,47.19,-2.5,0.41,-0.35,-0.19,-0.82,3.0,297.56,-64.06,-170.06,297.56,-64.06,-170.06,-0.46,0.38,-0.76,-0.28
3.0,127.25,47.94,-1.81,127.25,47.94,-1.81,0.4,-0.36,-0.19,-0.82,3.0,299.0,-65.19,-170.38,299.0,-65.19,-170.38,-0.47,0.37,-0.76,-0.27
3.0,127.37,48.19,-2.38,127.37,48.19,-2.38,0.4,-0.36,-0.2,-0.82,3.0,299.5,-65.75,-170.06,299.5,-65.75,-170.06,-0.47,0.36,-0.75,-0.27
3.0,127.56,48.06,-2.88,127.56,48.06,-2.88,0.4,-0.36,-0.2,-0.82,3.0,300.13,-66.19,-170.06,300.13,-66.19,-170.06,-0.48,0.36,-0.75,-0.27
3.0,127.62,48.0,-2.88,127.62,48.0,-2.88,0.4,-0.36,-0.2,-0.82,3.0,301.25,-67.31,-170.44,301.25,-67.31,-170.44,-0.49,0.36,-0.75,-0.27
3.0,127.81,48.0,-2.88,127.81,48.0,-2.88,0.4,-0.36,-0.2,-0.82,3.0,301.19,-68.12,-170.13,301.19,-68.12,-170.13,-0.49,0.36,-0.75,-0.28
3.0,127.87,48.0,-3.0,127.87,48.0,-3.0,0.4,-0.36,-0.2,-0.82,3.0,301.19,-68.12,-170.13,301.19,-68.12,-170.13,-0.49,0.36,-0.75,-0.28
3.0,128.25,48.06,-3.0,128.25,48.06,-3.0,0.4,-0.36,-0.19,-0.82,3.0,301.0,-67.75,-170.38,301.0,-67.75,-170.38,-0.49,0.36,-0.75,-0.28
3.0,128.44,48.19,-2.81,128.44,48.19,-2.81,0.4,-0.36,-0.19,-0.82,3.0,300.81,-67.44,-170.44,300.81,-67.44,-170.44,-0.48,0.36,-0.75,-0.28
3.0,128.38,48.25,-2.75,128.38,48.25,-2.75,0.4,-0.36,-0.19,-0.82,3.0,300.69,-67.12,-170.38,300.69,-67.12,-170.38,-0.48,0.36,-0.75,-0.27
3.0,128.44,48.25,-2.63,128.44,48.25,-2.63,0.4,-0.36,-0.19,-0.82,3.0,300.63,-67.0,-170.38,300.63,-67.0,-170.38,-0.48,0.36,-0.75,-0.27
3.0,128.38,48.31,-2.69,128.38,48.31,-2.69,0.4,-0.36,-0.19,-0.82,3.0,300.44,-67.0,-170.19,300.44,-67.0,-170.19,-0.48,0.36,-0.75,-0.28
3.0,128.5,48.19,-3.0,128.5,48.19,-3.0,0.4,-0.36,-0.2,-0.82,3.0,300.44,-67.25,-170.19,300.44,-67.25,-170.19,-0.48,0.36,-0.75,-0.28
3.0,128.56,48.13,-3.19,128.56,48.13,-3.19,0.4,-0.36,-0.2,-0.82,3.0,300.56,-67.5,-170.25,300.56,-67.5,-170.25,-0.49,0.36,-0.75,-0.28
3.0,128.56,48.13,-3.25,128.56,48.13,-3.25,0.4,-0.36,-0.2,-0.82,3.0,300.5,-67.62,-170.25,300.5,-67.62,-170.25,-0.49,0.36,-0.75,-0.28
3.0,128.56,48.19,-3.31,128.56,48.19,-3.31,0.4,-0.36,-0.2,-0.82,3.0,300.31,-67.56,-170.38,300.31,-67.56,-170.38,-0.48,0.36,-0.75,-0.28
3.0,128.56,48.25,-3.44,128.56,48.25,-3.44,0.4,-0.36,-0.2,-0.82,3.0,300.19,-67.56,-170.5,300.19,-67.56,-170.5,-0.48,0.36,-0.75,-0.28
3.0,128.63,48.31,-3.44,128.63,48.31,-3.44,0.39,-0.36,-0.2,-0.82,3.0,300.06,-67.56,-170.56,300.06,-67.56,-170.56,-0.48,0.37,-0.74,-0.28
3.0,128.69,48.38,-3.38,128.69,48.38,-3.38,0.39,-0.36,-0.2,-0.82,3.0,299.94,-67.62,-170.56,299.94,-67.62,-170.56,-0.48,0.37,-0.74,-0.28
3.0,128.69,48.38,-3.31,128.69,48.38,-3.31,0.39,-0.36,-0.2,-0.82,3.0,299.75,-67.75,-170.56,299.75,-67.75,-170.56,-0.48,0.37,-0.74,-0.28
3.0,128.75,48.38,-3.31,128.75,48.38,-3.31,0.39,-0.36,-0.2,-0.82,3.0,299.69,-67.94,-170.5,299.69,-67.94,-170.5,-0.49,0.37,-0.74,-0.28
3.0,128.75,48.38,-3.31,128.75,48.38,-3.31,0.39,-0.36,-0.2,-0.82,3.0,299.56,-67.94,-170.44,299.56,-67.94,-170.44,-0.49,0.37,-0.74,-0.28
3.0,128.81,48.38,-3.31,128.81,48.38,-3.31,0.39,-0.36,-0.2,-0.82,3.0,299.44,-68.0,-170.5,299.44,-68.0,-170.5,-0.49,0.37,-0.74,-0.28
3.0,128.81,48.38,-3.31,128.81,48.38,-3.31,0.39,-0.36,-0.2,-0.82,3.0,299.38,-68.0,-170.5,299.38,-68.0,-170.5,-0.48,0.37,-0.74,-0.28
3.0,128.81,48.31,-3.31,128.81,48.31,-3.31,0.39,-0.36,-0.2,-0.82,3.0,299.38,-67.87,-170.63,299.38,-67.87,-170.63,-0.48,0.37,-0.74,-0.28
3.0,128.94,48.31,-3.44,128.94,48.31,-3.44,0.39,-0.36,-0.2,-0.82,3.0,299.44,-67.69,-170.75,299.44,-67.69,-170.75,-0.48,0.37,-0.74,-0.28
3.0,128.88,48.25,-3.69,128.88,48.25,-3.69,0.39,-0.36,-0.2,-0.82,3.0,299.5,-67.5,-170.94,299.5,-67.5,-170.94,-0.48,0.37,-0.74,-0.28
3.0,128.94,48.19,-3.81,128.94,48.19,-3.81,0.39,-0.36,-0.2,-0.82,3.0,299.75,-67.31,-171.25,299.75,-67.31,-171.25,-0.48,0.37,-0.74,-0.28
3.0,129.0,48.25,-3.75,129.0,48.25,-3.75,0.39,-0.36,-0.2,-0.82,3.0,300.06,-67.0,-171.56,300.06,-67.0,-171.56,-0.48,0.37,-0.75,-0.28
3.0,129.0,48.25,-3.88,129.0,48.25,-3.88,0.39,-0.36,-0.2,-0.82,3.0,300.06,-66.62,-171.75,300.06,-66.62,-171.75,-0.48,0.37,-0.75,-0.27
3.0,129.06,48.25,-3.94,129.06,48.25,-3.94,0.39,-0.36,-0.2,-0.82,3.0,300.13,-66.37,-171.94,300.13,-66.37,-171.94,-0.48,0.37,-0.75,-0.27
3.0,129.0,48.25,-3.94,129.0,48.25,-3.94,0.39,-0.36,-0.2,-0.82,3.0,300.19,-66.25,-172.06,300.19,-66.25,-172.06,-0.48,0.37,-0.75,-0.27
3.0,129.0,48.25,-4.0,129.0,48.25,-4.0,0.39,-0.36,-0.2,-0.82,3.0,300.06,-66.06,-171.94,300.06,-66.06,-171.94,-0.47,0.37,-0.75,-0.27
3.0,129.06,48.31,-4.0,129.06,48.31,-4.0,0.39,-0.36,-0.2,-0.82,3.0,299.88,-65.94,-171.88,299.88,-65.94,-171.88,-0.47,0.37,-0.75,-0.27
3.0,129.06,48.38,-4.06,129.06,48.38,-4.06,0.39,-0.36,-0.2,-0.82,3.0,299.88,-65.94,-171.94,299.88,-65.94,-171.94,-0.47,0.37,-0.75,-0.27
3.0,129.19,48.5,-4.06,129.19,48.5,-4.06,0.39,-0.36,-0.2,-0.82,3.0,299.81,-65.87,-171.94,299.81,-65.87,-171.94,-0.47,0.37,-0.75,-0.27
3.0,129.31,48.56,-4.0,129.31,48.56,-4.0,0.39,-0.36,-0.2,-0.82,3.0,299.94,-65.75,-172.0,299.94,-65.75,-172.0,-0.47,0.37,-0.75,-0.27
3.0,129.5,48.56,-4.13,129.5,48.56,-4.13,0.39,-0.36,-0.2,-0.82,3.0,299.88,-65.5,-172.13,299.88,-65.5,-172.13,-0.47,0.38,-0.75,-0.27
3.0,129.56,48.5,-4.31,129.56,48.5,-4.31,0.39,-0.36,-0.2,-0.82,3.0,299.88,-65.19,-172.69,299.88,-65.19,-172.69,-0.47,0.38,-0.75,-0.27
3.0,129.56,48.5,-4.44,129.56,48.5,-4.44,0.39,-0.36,-0.2,-0.82,3.0,299.56,-64.37,-173.38,299.56,-64.37,-173.38,-0.46,0.39,-0.75,-0.27
3.0,129.69,48.5,-4.38,129.69,48.5,-4.38,0.39,-0.36,-0.2,-0.82,3.0,299.19,-63.44,-174.13,299.19,-63.44,-174.13,-0.45,0.39,-0.75,-0.27
3.0,129.75,48.5,-4.44,129.75,48.5,-4.44,0.39,-0.36,-0.2,-0.83,3.0,299.38,-62.75,-174.88,299.38,-62.75,-174.88,-0.45,0.4,-0.76,-0.26
3.0,129.88,48.5,-4.5,129.88,48.5,-4.5,0.39,-0.36,-0.2,-0.83,3.0,299.69,-62.31,-175.5,299.69,-62.31,-175.5,-0.45,0.4,-0.76,-0.26
3.0,129.88,48.5,-4.44,129.88,48.5,-4.44,0.39,-0.36,-0.2,-0.83,3.0,300.31,-62.13,-176.38,300.31,-62.13,-176.38,-0.45,0.4,-0.76,-0.26
3.0,129.88,48.56,-4.31,129.88,48.56,-4.31,0.39,-0.36,-0.2,-0.83,3.0,300.94,-62.19,-177.25,300.94,-62.19,-177.25,-0.45,0.4,-0.76,-0.25
3.0,129.88,48.56,-4.31,129.88,48.56,-4.31,0.39,-0.36,-0.2,-0.83,3.0,301.06,-62.31,-177.25,301.06,-62.31,-177.25,-0.45,0.4,-0.76,-0.25
3.0,129.81,48.56,-4.31,129.81,48.56,-4.31,0.39,-0.36,-0.2,-0.83,3.0,301.25,-62.44,-177.44,301.25,-62.44,-177.44,-0.45,0.4,-0.75,-0.25
3.0,129.88,48.56,-4.25,129.88,48.56,-4.25,0.39,-0.36,-0.2,-0.83,3.0,301.31,-62.56,-177.75,301.31,-62.56,-177.75,-0.45,0.4,-0.75,-0.25
3.0,129.88,48.63,-4.25,129.88,48.63,-4.25,0.39,-0.36,-0.2,-0.83,3.0,301.13,-62.44,-177.94,301.13,-62.44,-177.94,-0.45,0.41,-0.75,-0.26
3.0,129.94,48.63,-4.38,129.94,48.63,-4.38,0.39,-0.36,-0.2,-0.83,3.0,300.5,-62.0,-177.75,300.5,-62.0,-177.75,-0.45,0.41,-0.75,-0.26
3.0,130.0,48.56,-4.5,130.0,48.56,-4.5,0.38,-0.36,-0.2,-0.83,3.0,300.06,-61.31,-177.63,300.06,-61.31,-177.63,-0.44,0.41,-0.76,-0.25
3.0,130.0,48.56,-4.5,130.0,48.56,-4.5,0.38,-0.36,-0.2,-0.83,3.0,299.63,-60.63,-177.44,299.63,-60.63,-177.44,-0.44,0.42,-0.76,-0.25
3.0,130.0,48.63,-4.56,130.0,48.63,-4.56,0.38,-0.36,-0.2,-0.83,3.0,299.56,-60.31,-177.5,299.56,-60.31,-177.5,-0.43,0.42,-0.76,-0.25
3.0,129.94,48.5,-4.81,129.94,48.5,-4.81,0.39,-0.36,-0.2,-0.83,3.0,299.56,-60.13,-177.56,299.56,-60.13,-177.56,-0.43,0.42,-0.76,-0.25
3.0,129.88,48.38,-5.0,129.88,48.38,-5.0,0.39,-0.36,-0.2,-0.83,3.0,299.0,-59.94,-177.38,299.0,-59.94,-177.38,-0.43,0.42,-0.76,-0.25
3.0,129.75,48.19,-4.88,129.75,48.19,-4.88,0.39,-0.36,-0.2,-0.83,3.0,298.69,-59.88,-177.13,298.69,-59.88,-177.13,-0.43,0.42,-0.76,-0.25
3.0,129.69,47.94,-4.69,129.69,47.94,-4.69,0.39,-0.36,-0.2,-0.83,3.0,298.56,-59.88,-176.88,298.56,-59.88,-176.88,-0.43,0.42,-0.76,-0.26
3.0,129.69,47.75,-4.69,129.69,47.75,-4.69,0.39,-0.35,-0.2,-0.83,3.0,298.69,-59.81,-176.94,298.69,-59.81,-176.94,-0.43,0.42,-0.76,-0.25
3.0,129.69,47.69,-4.75,129.69,47.69,-4.75,0.39,-0.35,-0.2,-0.83,3.0,299.06,-59.69,-176.94,299.06,-59.69,-176.94,-0.43,0.42,-0.76,-0.25
3.0,129.75,47.56,-4.81,129.75,47.56,-4.81,0.39,-0.35,-0.2,-0.83,3.0,299.31,-59.38,-176.94,299.31,-59.38,-176.94,-0.43,0.41,-0.76,-0.25
3.0,129.75,47.56,-4.88,129.75,47.56,-4.88,0.39,-0.35,-0.2,-0.83,3.0,299.06,-58.75,-176.63,299.06,-58.75,-176.63,-0.42,0.41,-0.77,-0.25
3.0,129.81,47.56,-4.88,129.81,47.56,-4.88,0.39,-0.35,-0.2,-0.83,3.0,298.75,-58.31,-176.44,298.75,-58.31,-176.44,-0.42,0.42,-0.77,-0.25
3.0,129.81,47.56,-4.88,129.81,47.56,-4.88,0.39,-0.35,-0.2,-0.83,3.0,298.81,-58.06,-176.38,298.81,-58.06,-176.38,-0.42,0.42,-0.77,-0.25
3.0,129.81,47.56,-4.88,129.81,47.56,-4.88,0.39,-0.35,-0.2,-0.83,3.0,299.13,-58.06,-176.56,299.13,-58.06,-176.56,-0.42,0.41,-0.77,-0.25
3.0,129.81,47.56,-4.75,129.81,47.56,-4.75,0.39,-0.35,-0.2,-0.83,3.0,299.19,-58.06,-176.63,299.19,-58.06,-176.63,-0.42,0.41,-0.77,-0.25
3.0,129.81,47.5,-4.75,129.81,47.5,-4.75,0.39,-0.35,-0.2,-0.83,3.0,299.0,-58.06,-176.44,299.0,-58.06,-176.44,-0.42,0.41,-0.77,-0.25
3.0,129.81,47.44,-4.81,129.81,47.44,-4.81,0.39,-0.35,-0.2,-0.83,3.0,298.88,-58.0,-176.38,298.88,-58.0,-176.38,-0.42,0.41,-0.77,-0.25
3.0,129.81,47.44,-4.81,129.81,47.44,-4.81,0.39,-0.35,-0.2,-0.83,3.0,298.63,-57.81,-176.25,298.63,-57.81,-176.25,-0.42,0.42,-0.77,-0.25
3.0,129.81,47.38,-4.81,129.81,47.38,-4.81,0.39,-0.35,-0.2,-0.83,3.0,298.56,-57.69,-176.31,298.56,-57.69,-176.31,-0.41,0.42,-0.77,-0.25
3.0,129.81,47.38,-4.81,129.81,47.38,-4.81,0.39,-0.35,-0.2,-0.83,3.0,298.38,-57.25,-176.25,298.38,-57.25,-176.25,-0.41,0.42,-0.77,-0.25
3.0,129.88,47.38,-4.75,129.88,47.38,-4.75,0.39,-0.35,-0.2,-0.83,3.0,298.25,-56.88,-176.19,298.25,-56.88,-176.19,-0.41,0.42,-0.77,-0.24
3.0,129.81,47.38,-4.56,129.81,47.38,-4.56,0.39,-0.35,-0.2,-0.83,3.0,298.31,-56.69,-176.19,298.31,-56.69,-176.19,-0.41,0.42,-0.77,-0.24
3.0,129.75,47.44,-4.25,129.75,47.44,-4.25,0.39,-0.35,-0.2,-0.83,3.0,298.63,-56.75,-176.31,298.63,-56.75,-176.31,-0.41,0.42,-0.77,-0.24
3.0,129.75,47.38,-3.94,129.75,47.38,-3.94,0.39,-0.35,-0.19,-0.83,3.0,299.06,-56.44,-176.5,299.06,-56.44,-176.5,-0.41,0.42,-0.78,-0.24
3.0,129.75,47.25,-3.88,129.75,47.25,-3.88,0.39,-0.35,-0.19,-0.83,3.0,299.19,-56.06,-176.5,299.19,-56.06,-176.5,-0.4,0.41,-0.78,-0.24
3.0,129.81,47.06,-3.94,129.81,47.06,-3.94,0.39,-0.35,-0.19,-0.83,3.0,298.13,-55.38,-175.63,298.13,-55.38,-175.63,-0.4,0.41,-0.78,-0.24
3.0,129.88,46.88,-3.94,129.88,46.88,-3.94,0.39,-0.35,-0.19,-0.83,3.0,297.44,-54.81,-175.13,297.44,-54.81,-175.13,-0.39,0.42,-0.78,-0.24
3.0,129.88,46.75,-4.06,129.88,46.75,-4.06,0.39,-0.35,-0.19,-0.83,3.0,296.38,-53.94,-174.63,296.38,-53.94,-174.63,-0.38,0.42,-0.79,-0.24
3.0,129.88,46.63,-4.25,129.88,46.63,-4.25,0.39,-0.35,-0.19,-0.83,3.0,295.63,-53.19,-174.31,295.63,-53.19,-174.31,-0.38,0.42,-0.79,-0.24
3.0,129.88,46.56,-4.31,129.88,46.56,-4.31,0.39,-0.35,-0.19,-0.83,3.0,295.44,-52.63,-174.38,295.44,-52.63,-174.38,-0.38,0.42,-0.79,-0.24
3.0,129.81,46.63,-4.31,129.81,46.63,-4.31,0.39,-0.35,-0.19,-0.83,3.0,295.44,-52.25,-174.44,295.44,-52.25,-174.44,-0.37,0.42,-0.79,-0.24
3.0,129.81,46.56,-4.44,129.81,46.56,-4.44,0.39,-0.35,-0.19,-0.83,3.0,295.63,-52.0,-174.56,295.63,-52.0,-174.56,-0.37,0.42,-0.79,-0.23
3.0,129.75,46.5,-4.5,129.75,46.5,-4.5,0.39,-0.35,-0.19,-0.83,3.0,295.94,-51.88,-174.69,295.94,-51.88,-174.69,-0.37,0.42,-0.79,-0.23
3.0,129.75,46.5,-4.5,129.75,46.5,-4.5,0.39,-0.35,-0.19,-0.83,3.0,296.13,-51.63,-174.81,296.13,-51.63,-174.81,-0.37,0.42,-0.8,-0.23
3.0,129.75,46.44,-4.44,129.75,46.44,-4.44,0.39,-0.34,-0.19,-0.83,3.0,295.94,-51.13,-174.81,295.94,-51.13,-174.81,-0.37,0.42,-0.8,-0.23
3.0,129.75,46.44,-4.5,129.75,46.44,-4.5,0.39,-0.34,-0.19,-0.83,3.0,295.75,-50.44,-174.81,295.75,-50.44,-174.81,-0.36,0.42,-0.8,-0.23
3.0,129.75,46.44,-4.44,129.75,46.44,-4.44,0.39,-0.34,-0.19,-0.83,3.0,295.56,-49.75,-174.81,295.56,-49.75,-174.81,-0.36,0.42,-0.8,-0.22
3.0,129.75,46.44,-4.38,129.75,46.44,-4.38,0.39,-0.35,-0.19,-0.83,3.0,295.44,-49.06,-174.88,295.44,-49.06,-174.88,-0.35,0.43,-0.8,-0.22
3.0,129.75,46.38,-4.25,129.75,46.38,-4.25,0.39,-0.34,-0.19,-0.83,3.0,295.38,-48.5,-174.94,295.38,-48.5,-174.94,-0.35,0.43,-0.81,-0.22
3.0,129.75,46.25,-4.31,129.75,46.25,-4.31,0.39,-0.34,-0.19,-0.83,3.0,295.19,-48.0,-174.81,295.19,-48.0,-174.81,-0.34,0.43,-0.81,-0.22
3.0,129.75,46.13,-4.38,129.75,46.13,-4.38,0.39,-0.34,-0.19,-0.83,3.0,295.25,-47.75,-174.81,295.25,-47.75,-174.81,-0.34,0.42,-0.81,-0.22
3.0,129.69,45.94,-4.31,129.69,45.94,-4.31,0.39,-0.34,-0.19,-0.83,3.0,295.44,-47.69,-174.75,295.44,-47.69,-174.75,-0.34,0.42,-0.81,-0.22
3.0,129.56,45.75,-3.88,129.56,45.75,-3.88,0.39,-0.34,-0.19,-0.83,3.0,295.88,-47.81,-175.0,295.88,-47.81,-175.0,-0.35,0.42,-0.81,-0.22
3.0,129.44,45.5,-3.81,129.44,45.5,-3.81,0.39,-0.34,-0.19,-0.83,3.0,296.19,-47.69,-175.13,296.19,-47.69,-175.13,-0.34,0.42,-0.81,-0.21
3.0,129.44,45.44,-3.88,129.44,45.44,-3.88,0.39,-0.34,-0.19,-0.83,3.0,295.63,-47.38,-174.88,295.63,-47.38,-174.88,-0.34,0.42,-0.81,-0.21
3.0,129.44,45.38,-3.88,129.44,45.38,-3.88,0.39,-0.34,-0.19,-0.83,3.0,295.06,-46.94,-174.63,295.06,-46.94,-174.63,-0.34,0.42,-0.81,-0.21
3.0,129.5,45.31,-4.0,129.5,45.31,-4.0,0.39,-0.34,-0.19,-0.83,3.0,294.63,-46.5,-174.5,294.63,-46.5,-174.5,-0.33,0.42,-0.81,-0.21
3.0,129.5,45.38,-3.88,129.5,45.38,-3.88,0.39,-0.34,-0.19,-0.83,3.0,293.88,-45.94,-174.25,293.88,-45.94,-174.25,-0.33,0.43,-0.82,-0.21
3.0,129.5,45.44,-3.81,129.5,45.44,-3.81,0.39,-0.34,-0.19,-0.83,3.0,293.25,-45.31,-174.06,293.25,-45.31,-174.06,-0.32,0.43,-0.82,-0.21
3.0,129.44,45.5,-3.81,129.44,45.5,-3.81,0.39,-0.34,-0.19,-0.83,3.0,293.19,-45.0,-174.06,293.19,-45.0,-174.06,-0.32,0.43,-0.82,-0.21
3.0,129.44,45.56,-3.75,129.44,45.56,-3.75,0.39,-0.34,-0.19,-0.83,3.0,293.31,-44.88,-174.13,293.31,-44.88,-174.13,-0.32,0.43,-0.82,-0.21
