Calibration_1,AccX_1,AccY_1,AccZ_1,Roll_1,Pitch_1,Yaw_1,QuatW_1,QuatX_1,QuatY_1,QuatZ_1,Calibration_2,AccX_2,AccY_2,AccZ_2,Roll_2,Pitch_2,Yaw_2,QuatW_2,QuatX_2,QuatY_2,QuatZ_2
0.0,358.81,72.75,168.75,358.81,72.75,168.75,0.6,-0.04,-0.8,0.01,0.0,0.0,0.0,0.0,0.0,0.0,0.0,0.0,0.0,0.0,0.0
0.0,358.69,72.69,168.75,358.69,72.69,168.75,0.6,-0.04,-0.8,0.01,0.0,0.0,0.0,0.06,0.0,0.0,0.06,1.0,-0.0,-0.0,-0.0
0.0,358.63,72.62,168.69,358.63,72.62,168.69,0.59,-0.04,-0.8,0.01,0.0,0.0,0.0,0.06,0.0,0.0,0.06,1.0,-0.0,0.0,-0.0
0.0,358.69,72.62,168.63,358.69,72.62,168.63,0.6,-0.04,-0.8,0.01,0.0,0.12,46.31,-100.81,0.12,46.31,-100.81,0.66,0.51,-0.55,-0.0
0.0,358.69,72.69,168.63,358.69,72.69,168.63,0.6,-0.04,-0.8,0.01,0.0,0.12,46.19,-101.0,0.12,46.19,-101.0,0.66,0.51,-0.55,-0.0
0.0,358.63,72.62,168.5,358.63,72.62,168.5,0.59,-0.04,-0.8,0.01,0.0,0.12,46.25,-100.81,0.12,46.25,-100.81,0.66,0.51,-0.55,-0.0
0.0,358.44,72.56,168.31,358.44,72.56,168.31,0.59,-0.04,-0.8,0.01,0.0,0.12,46.19,-100.75,0.12,46.19,-100.75,0.66,0.51,-0.55,-0.0
0.0,358.44,72.69,168.19,358.44,72.69,168.19,0.6,-0.04,-0.8,0.01,0.0,0.12,46.25,-100.62,0.12,46.25,-100.62,0.66,0.51,-0.55,-0.0
0.0,358.38,72.69,168.19,358.38,72.69,168.19,0.6,-0.04,-0.8,0.01,0.0,0.06,46.25,-100.5,0.06,46.25,-100.5,0.66,0.51,-0.55,-0.0
0.0,358.38,72.75,168.13,358.38,72.75,168.13,0.6,-0.04,-0.8,0.01,0.0,0.12,46.25,-100.69,0.12,46.25,-100.69,0.66,0.51,-0.55,-0.0
0.0,358.25,72.75,168.13,358.25,72.75,168.13,0.6,-0.04,-0.8,0.01,0.0,0.31,46.13,-100.87,0.31,46.13,-100.87,0.66,0.51,-0.55,-0.0
0.0,358.25,72.56,167.81,358.25,72.56,167.81,0.59,-0.04,-0.8,0.01,0.0,0.19,46.19,-100.81,0.19,46.19,-100.81,0.66,0.51,-0.55,-0.0
0.0,358.25,72.62,167.69,358.25,72.62,167.69,0.6,-0.04,-0.8,0.01,0.0,0.19,46.19,-100.69,0.19,46.19,-100.69,0.66,0.51,-0.55,-0.0
0.0,358.13,72.75,167.75,358.13,72.75,167.75,0.6,-0.04,-0.8,0.01,0.0,0.12,46.25,-100.62,0.12,46.25,-100.62,0.66,0.51,-0.55,-0.0
0.0,358.13,72.75,167.75,358.13,72.75,167.75,0.6,-0.04,-0.8,0.01,0.0,0.19,46.19,-100.62,0.19,46.19,-100.62,0.66,0.51,-0.55,-0.0
0.0,358.13,72.62,167.56,358.13,72.62,167.56,0.59,-0.04,-0.8,0.01,0.0,0.19,46.25,-100.56,0.19,46.25,-100.56,0.66,0.51,-0.55,-0.0
0.0,357.94,72.56,167.5,357.94,72.56,167.5,0.59,-0.04,-0.8,0.01,0.0,0.12,46.25,-100.56,0.12,46.25,-100.56,0.66,0.51,-0.55,-0.0
0.0,358.0,72.69,167.75,358.0,72.69,167.75,0.6,-0.04,-0.8,0.01,0.0,0.19,46.19,-100.56,0.19,46.19,-100.56,0.66,0.51,-0.55,-0.0
0.0,358.13,72.69,167.63,358.13,72.69,167.63,0.6,-0.04,-0.8,0.01,0.0,0.19,46.19,-100.62,0.19,46.19,-100.62,0.66,0.51,-0.55,-0.0
0.0,358.13,72.81,167.56,358.13,72.81,167.56,0.6,-0.04,-0.8,0.01,0.0,0.19,46.13,-100.62,0.19,46.13,-100.62,0.66,0.51,-0.55,-0.0
0.0,358.06,72.94,167.63,358.06,72.94,167.63,0.6,-0.04,-0.8,0.01,0.0,0.12,46.19,-100.25,0.12,46.19,-100.25,0.66,0.51,-0.55,-0.0
0.0,358.44,73.0,167.94,358.44,73.0,167.94,0.6,-0.04,-0.8,0.01,0.0,0.06,46.13,-100.25,0.06,46.13,-100.25,0.66,0.51,-0.55,-0.0
0.0,358.63,73.25,167.88,358.63,73.25,167.88,0.6,-0.04,-0.8,0.01,0.0,359.94,46.13,-100.25,359.94,46.13,-100.25,0.66,0.51,-0.54,0.0
0.0,358.94,74.06,170.0,358.94,74.06,170.0,0.6,-0.03,-0.8,0.01,0.0,359.94,46.19,-100.06,359.94,46.19,-100.06,0.66,0.51,-0.55,-0.0
0.0,359.63,74.94,171.69,359.63,74.94,171.69,0.61,-0.03,-0.79,0.0,0.0,0.12,46.25,-100.19,0.12,46.25,-100.19,0.66,0.51,-0.55,-0.0
0.0,1.5,77.06,177.56,1.5,77.06,177.56,0.62,-0.02,-0.78,-0.01,0.0,359.5,47.25,-99.94,359.5,47.25,-99.94,0.66,0.51,-0.55,0.0
0.0,5.19,79.25,-173.38,5.19,79.25,-173.38,0.64,-0.02,-0.77,-0.03,0.0,0.44,48.13,-101.0,0.44,48.13,-101.0,0.66,0.49,-0.57,-0.0
0.0,7.38,79.94,-173.31,7.38,79.94,-173.31,0.64,-0.04,-0.76,-0.05,0.0,0.37,49.31,-102.25,0.37,49.31,-102.25,0.65,0.48,-0.59,-0.0
0.0,9.81,80.37,-172.88,9.81,80.37,-172.88,0.64,-0.05,-0.76,-0.06,0.0,0.88,50.63,-107.31,0.88,50.63,-107.31,0.64,0.47,-0.61,-0.01
0.0,12.44,81.06,-167.56,12.44,81.06,-167.56,0.65,-0.06,-0.76,-0.08,0.0,2.0,50.44,-110.87,2.0,50.44,-110.87,0.61,0.47,-0.64,-0.02
0.0,14.94,81.31,-163.25,14.94,81.31,-163.25,0.65,-0.07,-0.75,-0.09,0.0,3.81,50.0,-114.56,3.81,50.0,-114.56,0.6,0.46,-0.65,-0.02
0.0,17.25,80.94,-162.5,17.25,80.94,-162.5,0.64,-0.08,-0.75,-0.1,0.0,3.13,51.25,-116.56,3.13,51.25,-116.56,0.6,0.45,-0.66,-0.02
0.0,19.87,80.75,-158.56,19.87,80.75,-158.56,0.64,-0.09,-0.75,-0.12,0.0,2.13,52.13,-117.56,2.13,52.13,-117.56,0.6,0.44,-0.67,-0.01
0.0,24.25,82.25,-146.31,24.25,82.25,-146.31,0.66,-0.11,-0.73,-0.15,0.0,1.75,52.31,-119.37,1.75,52.31,-119.37,0.59,0.44,-0.68,-0.01
0.0,27.69,83.69,-175.38,27.69,83.69,-175.38,0.66,-0.12,-0.72,-0.17,0.0,1.06,53.06,-119.62,1.06,53.06,-119.62,0.6,0.43,-0.68,-0.0
0.0,28.87,82.94,-125.44,28.87,82.94,-125.44,0.66,-0.11,-0.72,-0.17,0.0,358.31,55.06,-119.31,358.31,55.06,-119.31,0.6,0.42,-0.68,0.01
0.0,30.94,82.44,-115.94,30.94,82.44,-115.94,0.66,-0.11,-0.72,-0.19,0.0,357.0,56.13,-119.0,357.0,56.13,-119.0,0.61,0.42,-0.68,0.02
0.0,32.88,82.25,-115.06,32.88,82.25,-115.06,0.66,-0.12,-0.72,-0.2,0.0,357.31,56.69,-117.25,357.31,56.69,-117.25,0.62,0.41,-0.67,0.01
0.0,33.94,81.31,-121.75,33.94,81.31,-121.75,0.65,-0.12,-0.73,-0.2,0.0,357.69,57.69,-113.81,357.69,57.69,-113.81,0.63,0.4,-0.66,0.01
0.0,34.25,80.81,-127.06,34.25,80.81,-127.06,0.64,-0.13,-0.73,-0.2,0.0,358.25,58.38,-109.69,358.25,58.38,-109.69,0.65,0.39,-0.65,0.01
0.0,34.38,80.25,-130.5,34.38,80.25,-130.5,0.64,-0.13,-0.74,-0.2,0.0,358.25,59.31,-105.19,358.25,59.31,-105.19,0.66,0.38,-0.65,0.01
0.0,33.56,79.62,-134.81,33.56,79.62,-134.81,0.63,-0.12,-0.74,-0.19,0.0,358.75,59.31,-102.62,358.75,59.31,-102.62,0.67,0.38,-0.64,0.01
0.0,32.31,78.81,-137.38,32.31,78.81,-137.38,0.63,-0.11,-0.75,-0.18,0.0,359.0,59.0,-100.25,359.0,59.0,-100.25,0.68,0.38,-0.63,0.01
0.0,31.62,78.37,-138.75,31.62,78.37,-138.75,0.63,-0.11,-0.75,-0.18,0.0,358.25,59.44,-95.75,358.25,59.44,-95.75,0.69,0.37,-0.62,0.01
0.0,31.25,77.81,-141.75,31.25,77.81,-141.75,0.62,-0.11,-0.76,-0.17,0.0,357.69,59.56,-92.37,357.69,59.56,-92.37,0.7,0.38,-0.61,0.01
0.0,30.25,76.94,-148.75,30.25,76.94,-148.75,0.61,-0.11,-0.77,-0.16,0.0,357.25,58.94,-91.75,357.25,58.94,-91.75,0.7,0.38,-0.6,0.02
0.0,28.81,76.19,-152.81,28.81,76.19,-152.81,0.61,-0.11,-0.77,-0.15,0.0,355.38,59.25,-88.69,355.38,59.25,-88.69,0.71,0.38,-0.59,0.03
0.0,27.75,75.94,-153.19,27.75,75.94,-153.19,0.61,-0.1,-0.77,-0.15,0.0,354.75,58.94,-86.94,354.75,58.94,-86.94,0.72,0.39,-0.58,0.03
0.0,26.75,75.5,-154.88,26.75,75.5,-154.88,0.6,-0.1,-0.78,-0.14,0.0,355.38,57.94,-86.94,355.38,57.94,-86.94,0.72,0.39,-0.57,0.03
0.0,25.06,74.69,-159.69,25.06,74.69,-159.69,0.6,-0.1,-0.79,-0.13,0.0,355.31,57.44,-85.31,355.31,57.44,-85.31,0.72,0.39,-0.57,0.03
0.0,23.69,74.19,-160.75,23.69,74.19,-160.75,0.6,-0.09,-0.79,-0.12,0.0,355.06,57.13,-84.0,355.06,57.13,-84.0,0.73,0.4,-0.56,0.03
0.0,23.37,74.37,-161.75,23.37,74.37,-161.75,0.6,-0.09,-0.79,-0.12,0.0,355.25,56.63,-83.56,355.25,56.63,-83.56,0.73,0.4,-0.56,0.03
0.0,22.12,73.81,-164.56,22.12,73.81,-164.56,0.59,-0.09,-0.79,-0.11,0.0,355.19,56.31,-82.31,355.19,56.31,-82.31,0.73,0.4,-0.55,0.03
0.0,20.56,73.25,-166.31,20.56,73.25,-166.31,0.59,-0.09,-0.8,-0.11,0.0,355.13,55.94,-81.62,355.13,55.94,-81.62,0.73,0.4,-0.55,0.03
0.0,19.69,73.12,-169.13,19.69,73.12,-169.13,0.59,-0.1,-0.8,-0.1,0.0,355.0,55.44,-82.12,355.0,55.44,-82.12,0.73,0.41,-0.54,0.03
0.0,18.87,72.62,-172.81,18.87,72.62,-172.81,0.58,-0.1,-0.8,-0.09,0.0,354.88,55.06,-82.94,354.88,55.06,-82.94,0.73,0.41,-0.54,0.03
0.0,16.94,72.0,-176.63,16.94,72.0,-176.63,0.58,-0.1,-0.8,-0.08,0.0,354.13,55.06,-85.0,354.13,55.06,-85.0,0.72,0.43,-0.55,0.04
0.0,13.63,71.5,-179.31,13.63,71.5,-179.31,0.58,-0.09,-0.81,-0.06,0.0,351.81,54.81,-91.44,351.81,54.81,-91.44,0.69,0.46,-0.55,0.06
0.0,9.06,70.87,178.63,9.06,70.87,178.63,0.58,-0.06,-0.81,-0.04,0.0,349.63,54.38,-97.06,349.63,54.38,-97.06,0.67,0.48,-0.56,0.06
0.0,5.06,70.75,177.13,5.06,70.75,177.13,0.58,-0.04,-0.81,-0.02,0.0,349.19,53.06,-103.5,349.19,53.06,-103.5,0.64,0.51,-0.57,0.06
0.0,3.25,72.06,177.0,3.25,72.06,177.0,0.59,-0.04,-0.8,-0.01,0.0,350.38,49.13,-110.81,350.38,49.13,-110.81,0.61,0.56,-0.57,0.05
0.0,1.56,73.62,173.25,1.56,73.62,173.25,0.6,-0.04,-0.8,-0.0,0.0,351.25,45.06,-115.0,351.25,45.06,-115.0,0.59,0.58,-0.56,0.05
0.0,358.56,75.12,168.56,358.56,75.12,168.56,0.62,-0.03,-0.79,0.01,0.0,354.0,40.25,-117.87,354.0,40.25,-117.87,0.57,0.62,-0.54,0.03
0.0,354.5,76.75,164.38,354.5,76.75,164.38,0.63,-0.0,-0.78,0.04,0.0,0.56,34.25,-120.12,0.56,34.25,-120.12,0.54,0.66,-0.52,-0.0
0.0,352.31,79.0,164.06,352.31,79.0,164.06,0.64,0.01,-0.77,0.05,0.0,3.56,30.75,-121.62,3.56,30.75,-121.62,0.52,0.68,-0.51,-0.02
0.0,351.0,79.87,158.56,351.0,79.87,158.56,0.65,0.01,-0.76,0.05,0.0,358.56,33.25,-116.69,358.56,33.25,-116.69,0.56,0.67,-0.48,0.01
0.0,349.44,79.81,153.19,349.44,79.81,153.19,0.65,0.01,-0.76,0.06,0.0,354.81,34.5,-113.94,354.81,34.5,-113.94,0.58,0.67,-0.46,0.03
0.0,347.5,80.25,150.69,347.5,80.25,150.69,0.65,0.02,-0.76,0.08,0.0,355.63,33.31,-112.81,355.63,33.31,-112.81,0.58,0.68,-0.45,0.02
0.0,344.44,80.19,148.75,344.44,80.19,148.75,0.64,0.04,-0.76,0.1,0.0,356.75,32.19,-111.25,356.75,32.19,-111.25,0.59,0.68,-0.43,0.02
0.0,340.38,78.62,148.88,340.38,78.62,148.88,0.63,0.06,-0.77,0.12,0.0,352.69,35.63,-103.62,352.69,35.63,-103.62,0.63,0.65,-0.42,0.04
0.0,336.25,76.44,148.25,336.25,76.44,148.25,0.61,0.07,-0.77,0.14,0.0,348.06,39.38,-93.75,348.06,39.38,-93.75,0.69,0.6,-0.4,0.07
0.0,332.69,73.62,149.25,332.69,73.62,149.25,0.59,0.07,-0.79,0.15,0.0,346.31,41.0,-86.75,346.31,41.0,-86.75,0.72,0.57,-0.39,0.09
0.0,327.94,68.37,150.38,327.94,68.37,150.38,0.55,0.07,-0.82,0.17,0.0,346.13,41.69,-80.87,346.13,41.69,-80.87,0.75,0.53,-0.38,0.09
0.0,324.0,64.56,151.0,324.0,64.56,151.0,0.53,0.07,-0.83,0.18,0.0,346.19,42.31,-73.37,346.19,42.31,-73.37,0.78,0.49,-0.37,0.1
0.0,322.56,64.56,150.44,322.56,64.56,150.44,0.53,0.09,-0.82,0.18,0.0,344.0,44.31,-66.69,344.0,44.31,-66.69,0.8,0.45,-0.38,0.12
0.0,323.31,64.81,154.44,323.31,64.81,154.44,0.52,0.1,-0.83,0.17,0.0,342.25,46.13,-60.25,342.25,46.13,-60.25,0.81,0.42,-0.38,0.13
0.0,324.5,61.13,159.0,324.5,61.13,159.0,0.49,0.09,-0.85,0.15,0.0,340.75,47.56,-55.19,340.75,47.56,-55.19,0.82,0.4,-0.38,0.15
0.0,328.31,58.56,162.44,328.31,58.56,162.44,0.48,0.08,-0.86,0.14,0.0,338.25,49.5,-52.44,338.25,49.5,-52.44,0.82,0.39,-0.39,0.16
0.0,331.94,58.88,165.31,331.94,58.88,165.31,0.49,0.08,-0.86,0.12,0.0,338.44,51.31,-54.25,338.44,51.31,-54.25,0.81,0.39,-0.41,0.15
0.0,333.88,60.38,167.5,333.88,60.38,167.5,0.5,0.09,-0.86,0.11,0.0,340.0,52.81,-58.0,340.0,52.81,-58.0,0.8,0.4,-0.43,0.14
0.0,337.06,61.69,170.81,337.06,61.69,170.81,0.51,0.1,-0.85,0.1,0.0,339.0,55.06,-60.81,339.0,55.06,-60.81,0.78,0.4,-0.45,0.15
0.0,342.13,62.44,173.63,342.13,62.44,173.63,0.51,0.08,-0.85,0.08,0.0,338.63,57.44,-65.69,338.63,57.44,-65.69,0.76,0.41,-0.48,0.14
0.0,347.44,64.56,175.13,347.44,64.56,175.13,0.53,0.06,-0.84,0.06,0.0,341.44,58.13,-74.37,341.44,58.13,-74.37,0.74,0.43,-0.51,0.11
0.0,350.94,68.75,177.31,350.94,68.75,177.31,0.56,0.05,-0.82,0.04,0.0,342.19,58.75,-81.19,342.19,58.75,-81.19,0.72,0.44,-0.53,0.12
0.0,355.19,73.75,-169.25,355.19,73.75,-169.25,0.6,0.08,-0.79,0.03,0.0,339.63,61.13,-86.0,339.63,61.13,-86.0,0.7,0.44,-0.55,0.13
0.0,5.81,76.5,-134.13,5.81,76.5,-134.13,0.65,0.09,-0.76,-0.03,0.0,340.06,62.31,-95.0,340.06,62.31,-95.0,0.68,0.44,-0.57,0.12
0.0,12.75,79.69,-118.87,12.75,79.69,-118.87,0.68,-0.01,-0.73,-0.09,0.0,343.69,59.0,-111.0,343.69,59.0,-111.0,0.63,0.47,-0.61,0.09
0.0,19.19,86.44,-176.5,19.19,86.44,-176.5,0.7,-0.1,-0.7,-0.13,0.0,346.31,55.06,-120.06,346.31,55.06,-120.06,0.59,0.49,-0.63,0.07
0.0,23.06,86.44,-1.94,23.06,86.44,-1.94,0.72,-0.11,-0.67,-0.15,0.0,346.06,58.0,-117.0,346.06,58.0,-117.0,0.61,0.46,-0.64,0.07
0.0,25.12,82.87,-36.75,25.12,82.87,-36.75,0.73,-0.09,-0.66,-0.16,0.0,346.25,57.69,-121.44,346.25,57.69,-121.44,0.6,0.46,-0.65,0.07
0.0,26.75,81.87,-38.0,26.75,81.87,-38.0,0.72,-0.11,-0.66,-0.18,0.0,349.19,53.5,-129.19,349.19,53.5,-129.19,0.56,0.48,-0.68,0.05
0.0,29.12,83.37,-3.25,29.12,83.37,-3.25,0.72,-0.15,-0.66,-0.19,0.0,353.81,51.5,-129.75,353.81,51.5,-129.75,0.56,0.46,-0.69,0.02
0.0,30.44,84.87,-0.88,30.44,84.87,-0.88,0.71,-0.17,-0.65,-0.2,0.0,0.06,53.0,-122.87,0.06,53.0,-122.87,0.58,0.43,-0.69,-0.0
0.0,31.62,84.75,-1.31,31.62,84.75,-1.31,0.71,-0.17,-0.65,-0.2,0.0,1.69,52.81,-121.5,1.69,52.81,-121.5,0.58,0.43,-0.69,-0.01
0.0,32.63,84.94,-2.0,32.63,84.94,-2.0,0.7,-0.17,-0.66,-0.21,0.0,4.5,53.25,-116.06,4.5,53.25,-116.06,0.63,0.4,-0.67,-0.03
0.0,34.31,86.5,-0.94,34.31,86.5,-0.94,0.69,-0.2,-0.66,-0.22,0.0,7.69,55.5,-102.0,7.69,55.5,-102.0,0.68,0.37,-0.64,-0.05
0.0,35.0,89.0,0.56,35.0,89.0,0.56,0.67,-0.22,-0.67,-0.21,0.0,7.88,55.94,-93.5,7.88,55.94,-93.5,0.7,0.36,-0.62,-0.05
0.0,34.75,88.12,178.75,34.75,88.12,178.75,0.66,-0.23,-0.68,-0.21,0.0,7.25,55.56,-88.5,7.25,55.56,-88.5,0.72,0.36,-0.6,-0.04
0.0,33.88,86.62,178.25,33.88,86.62,178.25,0.66,-0.23,-0.69,-0.2,0.0,6.06,55.13,-82.69,6.06,55.13,-82.69,0.74,0.36,-0.57,-0.04
0.0,32.56,84.87,177.88,32.56,84.87,177.88,0.65,-0.23,-0.7,-0.19,0.0,4.69,54.56,-79.87,4.69,54.56,-79.87,0.74,0.36,-0.56,-0.03
0.0,30.81,83.19,177.25,30.81,83.19,177.25,0.64,-0.23,-0.71,-0.18,0.0,4.94,53.06,-79.37,4.94,53.06,-79.37,0.75,0.38,-0.55,-0.03
0.0,28.81,81.81,159.25,28.81,81.81,159.25,0.64,-0.22,-0.72,-0.16,0.0,4.44,51.81,-79.94,4.44,51.81,-79.94,0.74,0.39,-0.54,-0.03
0.0,26.81,81.0,160.31,26.81,81.0,160.31,0.64,-0.21,-0.73,-0.15,0.0,2.69,50.63,-84.31,2.69,50.63,-84.31,0.73,0.42,-0.54,-0.02
0.0,25.75,80.75,160.44,25.75,80.75,160.44,0.64,-0.2,-0.73,-0.14,0.0,359.81,50.06,-91.37,359.81,50.06,-91.37,0.7,0.46,-0.55,0.0
0.0,23.37,80.62,163.69,23.37,80.62,163.69,0.64,-0.17,-0.74,-0.13,0.0,357.63,49.0,-98.5,357.63,49.0,-98.5,0.66,0.51,-0.55,0.02
0.0,19.56,79.94,169.81,19.56,79.94,169.81,0.63,-0.15,-0.75,-0.1,0.0,354.5,46.94,-107.94,354.5,46.94,-107.94,0.63,0.54,-0.56,0.03
0.0,16.06,79.06,166.31,16.06,79.06,166.31,0.63,-0.14,-0.75,-0.09,0.0,354.88,44.81,-111.87,354.88,44.81,-111.87,0.6,0.58,-0.56,0.03
0.0,13.69,80.12,162.25,13.69,80.12,162.25,0.65,-0.12,-0.75,-0.07,0.0,356.69,40.75,-116.62,356.69,40.75,-116.62,0.56,0.62,-0.54,0.01
0.0,9.31,80.81,159.75,9.31,80.81,159.75,0.65,-0.1,-0.75,-0.04,0.0,0.81,35.5,-117.81,0.81,35.5,-117.81,0.56,0.65,-0.52,-0.01
0.0,3.31,80.19,153.81,3.31,80.19,153.81,0.65,-0.07,-0.76,-0.01,0.0,4.63,32.06,-117.25,4.63,32.06,-117.25,0.54,0.67,-0.51,-0.04
0.0,356.38,79.44,150.44,356.38,79.44,150.44,0.65,-0.03,-0.76,0.03,0.0,17.87,23.12,-121.0,17.87,23.12,-121.0,0.49,0.71,-0.49,-0.1
0.0,351.56,79.75,150.25,351.56,79.75,150.25,0.65,-0.01,-0.76,0.05,0.0,27.62,17.12,-122.5,27.62,17.12,-122.5,0.49,0.72,-0.48,-0.11
0.0,349.06,79.19,147.13,349.06,79.19,147.13,0.64,-0.01,-0.76,0.06,0.0,17.44,22.0,-118.44,17.44,22.0,-118.44,0.54,0.7,-0.46,-0.06
0.0,347.06,77.94,147.13,347.06,77.94,147.13,0.64,0.0,-0.77,0.08,0.0,8.44,25.81,-115.69,8.44,25.81,-115.69,0.55,0.71,-0.44,-0.04
0.0,344.88,77.25,150.38,344.88,77.25,150.38,0.63,0.02,-0.77,0.09,0.0,7.44,24.94,-115.69,7.44,24.94,-115.69,0.55,0.72,-0.43,-0.04
0.0,343.13,75.94,155.81,343.13,75.94,155.81,0.61,0.04,-0.79,0.09,0.0,8.13,24.44,-112.81,8.13,24.44,-112.81,0.58,0.7,-0.41,-0.04
0.0,340.19,71.75,159.94,340.19,71.75,159.94,0.57,0.05,-0.81,0.1,0.0,7.5,25.81,-108.06,7.5,25.81,-108.06,0.6,0.68,-0.41,-0.04
0.0,338.69,68.19,162.88,338.69,68.19,162.88,0.55,0.06,-0.82,0.1,0.0,8.81,25.5,-105.37,8.81,25.5,-105.37,0.63,0.67,-0.4,-0.04
0.0,338.88,65.81,167.69,338.88,65.81,167.69,0.53,0.08,-0.84,0.1,0.0,2.56,30.06,-97.94,2.56,30.06,-97.94,0.66,0.64,-0.39,-0.02
0.0,338.88,61.63,170.38,338.88,61.63,170.38,0.5,0.08,-0.86,0.09,0.0,358.13,33.81,-90.06,358.13,33.81,-90.06,0.72,0.58,-0.38,0.01
0.0,338.94,59.0,171.88,338.94,59.0,171.88,0.49,0.09,-0.86,0.09,0.0,358.94,34.69,-85.44,358.94,34.69,-85.44,0.74,0.55,-0.39,0.01
0.0,339.75,59.63,174.81,339.75,59.63,174.81,0.49,0.11,-0.86,0.09,0.0,357.25,37.06,-78.5,357.25,37.06,-78.5,0.76,0.52,-0.38,0.02
0.0,341.06,58.75,176.63,341.06,58.75,176.63,0.48,0.11,-0.86,0.08,0.0,355.81,39.63,-74.19,355.81,39.63,-74.19,0.78,0.49,-0.39,0.03
0.0,344.56,59.25,178.88,344.56,59.25,178.88,0.49,0.11,-0.86,0.07,0.0,355.44,41.25,-73.56,355.44,41.25,-73.56,0.78,0.47,-0.41,0.03
0.0,349.44,61.75,-177.25,349.44,61.75,-177.25,0.51,0.1,-0.85,0.05,0.0,355.06,43.94,-71.56,355.06,43.94,-71.56,0.78,0.45,-0.43,0.03
0.0,353.25,62.5,-177.25,353.25,62.5,-177.25,0.52,0.07,-0.85,0.03,0.0,355.25,45.75,-69.75,355.25,45.75,-69.75,0.79,0.43,-0.44,0.04
0.0,355.0,61.56,178.88,355.0,61.56,178.88,0.51,0.03,-0.86,0.02,0.0,354.69,47.75,-68.87,354.69,47.75,-68.87,0.79,0.42,-0.46,0.03
0.0,354.44,62.19,174.06,354.44,62.19,174.06,0.53,-0.02,-0.85,0.03,0.0,359.75,47.63,-72.12,359.75,47.63,-72.12,0.77,0.42,-0.48,-0.01
0.0,353.75,67.81,168.75,353.75,67.81,168.75,0.58,-0.02,-0.81,0.03,0.0,5.81,46.5,-80.25,5.81,46.5,-80.25,0.74,0.43,-0.52,-0.04
0.0,355.38,75.5,166.75,355.38,75.5,166.75,0.63,-0.02,-0.78,0.02,0.0,7.06,47.56,-82.87,7.06,47.56,-82.87,0.73,0.42,-0.53,-0.04
0.0,358.38,80.37,161.75,358.38,80.37,161.75,0.66,-0.03,-0.75,0.0,0.0,4.5,49.94,-83.25,4.5,49.94,-83.25,0.73,0.41,-0.54,-0.02
0.0,0.37,82.5,155.56,0.37,82.5,155.56,0.67,-0.05,-0.74,-0.0,0.0,2.13,52.25,-87.0,2.13,52.25,-87.0,0.71,0.42,-0.57,-0.02
0.0,1.69,83.56,176.88,1.69,83.56,176.88,0.67,-0.05,-0.74,-0.01,0.0,3.56,52.88,-92.5,3.56,52.88,-92.5,0.7,0.41,-0.59,-0.02
0.0,4.25,85.37,177.63,4.25,85.37,177.63,0.69,-0.06,-0.72,-0.03,0.0,4.19,53.94,-96.94,4.19,53.94,-96.94,0.68,0.41,-0.61,-0.03
0.0,7.44,88.94,179.0,7.44,88.94,179.0,0.72,-0.06,-0.69,-0.06,0.0,1.37,58.13,-97.44,1.37,58.13,-97.44,0.68,0.38,-0.63,-0.01
0.0,13.06,82.87,-17.81,13.06,82.87,-17.81,0.74,-0.05,-0.66,-0.09,0.0,0.81,60.25,-98.37,0.81,60.25,-98.37,0.68,0.35,-0.65,-0.01
0.0,18.31,77.81,-20.37,18.31,77.81,-20.37,0.76,-0.05,-0.63,-0.12,0.0,4.69,59.44,-105.06,4.69,59.44,-105.06,0.65,0.35,-0.68,-0.04
0.0,19.75,79.0,-7.38,19.75,79.0,-7.38,0.76,-0.09,-0.63,-0.13,0.0,12.19,55.75,-108.62,12.19,55.75,-108.62,0.65,0.33,-0.68,-0.06
0.0,20.44,80.31,3.44,20.44,80.31,3.44,0.75,-0.12,-0.63,-0.14,0.0,3.69,64.19,-97.69,3.69,64.19,-97.69,0.71,0.27,-0.65,0.0
0.0,21.62,80.25,5.5,21.62,80.25,5.5,0.75,-0.13,-0.63,-0.14,0.0,355.81,69.5,-76.12,355.81,69.5,-76.12,0.75,0.25,-0.62,0.03
0.0,21.06,81.12,9.94,21.06,81.12,9.94,0.74,-0.14,-0.64,-0.14,0.0,358.0,67.19,-66.44,358.0,67.19,-66.44,0.76,0.24,-0.6,0.01
0.0,20.06,83.06,18.94,20.06,83.06,18.94,0.73,-0.14,-0.65,-0.13,0.0,0.31,66.0,-63.25,0.31,66.0,-63.25,0.77,0.23,-0.59,-0.0
0.0,19.31,85.06,3.13,19.31,85.06,3.13,0.71,-0.16,-0.67,-0.12,0.0,1.44,64.44,-60.44,1.44,64.44,-60.44,0.78,0.23,-0.58,-0.01
0.0,18.75,85.0,4.88,18.75,85.0,4.88,0.69,-0.18,-0.69,-0.11,0.0,2.25,62.88,-58.13,2.25,62.88,-58.13,0.79,0.23,-0.56,-0.02
0.0,17.81,83.12,173.94,17.81,83.12,173.94,0.67,-0.19,-0.71,-0.1,0.0,0.31,60.31,-49.44,0.31,60.31,-49.44,0.81,0.23,-0.53,-0.0
0.0,14.94,80.25,131.94,14.94,80.25,131.94,0.65,-0.18,-0.73,-0.08,0.0,358.81,58.69,-46.44,358.81,58.69,-46.44,0.83,0.24,-0.51,0.01
0.0,10.69,77.75,144.13,10.69,77.75,144.13,0.63,-0.16,-0.75,-0.05,0.0,358.44,55.94,-45.31,358.44,55.94,-45.31,0.84,0.25,-0.49,0.01
0.0,7.63,74.62,148.75,7.63,74.62,148.75,0.62,-0.16,-0.77,-0.04,0.0,357.69,53.88,-44.38,357.69,53.88,-44.38,0.85,0.25,-0.47,0.02
0.0,3.75,70.56,145.13,3.75,70.56,145.13,0.6,-0.19,-0.78,-0.01,0.0,356.69,52.38,-42.13,356.69,52.38,-42.13,0.85,0.25,-0.45,0.02
0.0,359.31,68.69,140.5,359.31,68.69,140.5,0.6,-0.19,-0.78,0.01,0.0,356.94,50.81,-42.94,356.94,50.81,-42.94,0.85,0.28,-0.45,0.02
0.0,357.0,68.5,136.5,357.0,68.5,136.5,0.61,-0.19,-0.77,0.02,0.0,356.13,51.56,-51.75,356.13,51.56,-51.75,0.82,0.33,-0.47,0.03
0.0,349.69,63.31,133.56,349.69,63.31,133.56,0.59,-0.21,-0.78,0.05,0.0,352.19,53.81,-64.5,352.19,53.81,-64.5,0.78,0.39,-0.49,0.07
0.0,339.31,57.69,130.38,339.31,57.69,130.38,0.56,-0.22,-0.79,0.1,0.0,348.0,56.0,-74.94,348.0,56.0,-74.94,0.74,0.42,-0.51,0.08
0.0,331.19,55.19,125.31,331.19,55.19,125.31,0.56,-0.21,-0.79,0.14,0.0,349.94,54.94,-83.81,349.94,54.94,-83.81,0.72,0.44,-0.53,0.06
0.0,323.25,53.38,119.0,323.25,53.38,119.0,0.57,-0.2,-0.78,0.19,0.0,352.56,53.88,-91.44,352.56,53.88,-91.44,0.69,0.46,-0.56,0.03
0.0,318.75,52.19,115.5,318.75,52.19,115.5,0.57,-0.19,-0.77,0.22,0.0,356.5,51.94,-102.81,356.5,51.94,-102.81,0.66,0.48,-0.59,0.02
0.0,314.81,52.56,111.12,314.81,52.56,111.12,0.58,-0.16,-0.76,0.25,0.0,7.75,45.25,-113.19,7.75,45.25,-113.19,0.6,0.5,-0.63,-0.04
0.0,309.81,52.38,107.06,309.81,52.38,107.06,0.58,-0.15,-0.75,0.28,0.0,26.75,35.44,-114.62,26.75,35.44,-114.62,0.56,0.51,-0.64,-0.13
0.0,303.81,50.0,104.37,303.81,50.0,104.37,0.57,-0.14,-0.74,0.31,0.0,23.5,38.69,-113.75,23.5,38.69,-113.75,0.57,0.49,-0.65,-0.12
0.0,300.69,50.88,100.56,300.69,50.88,100.56,0.58,-0.11,-0.74,0.34,0.0,12.56,43.44,-116.19,12.56,43.44,-116.19,0.58,0.5,-0.65,-0.04
0.0,297.0,50.63,99.06,297.0,50.63,99.06,0.56,-0.1,-0.74,0.36,0.0,358.13,47.81,-121.0,358.13,47.81,-121.0,0.57,0.52,-0.64,0.02
0.0,291.13,47.81,101.31,291.13,47.81,101.31,0.53,-0.09,-0.75,0.38,0.0,352.94,47.63,-126.31,352.94,47.63,-126.31,0.55,0.54,-0.64,0.03
0.0,284.44,46.5,103.12,284.44,46.5,103.12,0.5,-0.06,-0.76,0.41,0.0,355.0,45.69,-127.44,355.0,45.69,-127.44,0.53,0.55,-0.64,0.02
0.0,277.63,45.0,104.62,277.63,45.0,104.62,0.47,-0.03,-0.77,0.43,0.0,352.31,46.44,-127.44,352.31,46.44,-127.44,0.54,0.55,-0.64,0.04
0.0,272.19,43.13,107.0,272.19,43.13,107.0,0.44,-0.02,-0.78,0.44,0.0,347.69,49.06,-125.81,347.69,49.06,-125.81,0.55,0.55,-0.63,0.06
0.0,266.19,40.94,109.25,266.19,40.94,109.25,0.41,0.0,-0.79,0.45,0.0,345.19,51.31,-123.12,345.19,51.31,-123.12,0.58,0.53,-0.61,0.08
0.0,261.25,39.38,111.87,261.25,39.38,111.87,0.38,0.02,-0.81,0.45,0.0,339.75,57.75,-114.62,339.75,57.75,-114.62,0.61,0.5,-0.6,0.11
0.0,259.0,38.19,115.37,259.0,38.19,115.37,0.36,0.02,-0.82,0.44,0.0,339.5,59.5,-109.62,339.5,59.5,-109.62,0.65,0.47,-0.59,0.11
0.0,258.31,37.5,118.56,258.31,37.5,118.56,0.35,0.03,-0.83,0.43,0.0,346.81,59.31,-96.69,346.81,59.31,-96.69,0.68,0.44,-0.58,0.08
0.0,257.5,37.44,120.62,257.5,37.44,120.62,0.34,0.05,-0.84,0.42,0.0,350.19,57.81,-95.37,350.19,57.81,-95.37,0.68,0.44,-0.58,0.06
0.0,259.88,38.56,122.25,259.88,38.56,122.25,0.35,0.05,-0.84,0.41,0.0,349.31,58.06,-96.56,349.31,58.06,-96.56,0.69,0.43,-0.58,0.07
0.0,267.69,42.31,124.44,267.69,42.31,124.44,0.38,0.06,-0.84,0.38,0.0,346.31,62.25,-87.37,346.31,62.25,-87.37,0.72,0.37,-0.58,0.09
0.0,274.88,45.06,128.69,274.88,45.06,128.69,0.39,0.07,-0.85,0.35,0.0,349.44,63.88,-76.44,349.44,63.88,-76.44,0.74,0.33,-0.58,0.05
0.0,280.88,45.5,134.13,280.88,45.5,134.13,0.39,0.06,-0.86,0.31,0.0,356.75,61.63,-80.19,356.75,61.63,-80.19,0.73,0.34,-0.59,0.01
0.0,213.75,45.13,137.13,213.75,45.13,137.13,0.15,0.55,-0.68,0.47,0.0,358.94,60.88,-86.06,358.94,60.88,-86.06,0.72,0.34,-0.61,0.01
0.0,217.69,47.31,137.31,217.69,47.31,137.31,0.17,0.55,-0.67,0.48,0.0,356.5,63.31,-86.31,356.5,63.31,-86.31,0.72,0.33,-0.62,0.02
0.0,225.19,52.69,135.69,225.19,52.69,135.69,0.22,0.53,-0.65,0.5,0.0,355.31,64.81,-89.31,355.31,64.81,-89.31,0.7,0.33,-0.63,0.03
0.0,234.56,58.44,132.13,234.56,58.44,132.13,0.27,0.5,-0.65,0.51,0.0,354.25,66.0,-94.44,354.25,66.0,-94.44,0.69,0.32,-0.65,0.04
0.0,239.06,60.63,128.88,239.06,60.63,128.88,0.3,0.48,-0.65,0.51,0.0,354.13,67.12,-98.56,354.13,67.12,-98.56,0.68,0.31,-0.66,0.03
0.0,242.88,62.0,126.19,242.88,62.0,126.19,0.32,0.45,-0.66,0.51,0.0,356.81,65.69,-105.19,356.81,65.69,-105.19,0.66,0.32,-0.68,0.01
0.0,245.0,61.63,120.5,245.0,61.63,120.5,0.34,0.41,-0.66,0.53,0.0,359.19,64.12,-109.25,359.19,64.12,-109.25,0.65,0.31,-0.69,0.01
0.0,248.5,64.5,110.44,248.5,64.5,110.44,0.38,0.39,-0.64,0.54,0.0,356.94,66.69,-109.37,356.94,66.69,-109.37,0.66,0.3,-0.69,0.02
0.0,252.56,67.44,98.31,252.56,67.44,98.31,0.42,0.37,-0.61,0.56,0.0,355.69,67.62,-112.94,355.69,67.62,-112.94,0.65,0.3,-0.7,0.02
0.0,257.31,69.62,88.56,257.31,69.62,88.56,0.45,0.35,-0.61,0.55,0.0,359.19,65.0,-117.0,359.19,65.0,-117.0,0.64,0.3,-0.71,-0.0
0.0,258.69,67.62,88.62,258.69,67.62,88.62,0.45,0.32,-0.63,0.55,0.0,1.12,65.5,-114.5,1.12,65.5,-114.5,0.65,0.28,-0.71,-0.0
0.0,259.06,65.75,85.94,259.06,65.75,85.94,0.47,0.3,-0.61,0.56,0.0,359.81,67.12,-111.44,359.81,67.12,-111.44,0.66,0.28,-0.7,-0.0
0.0,264.94,69.44,66.12,264.94,69.44,66.12,0.53,0.32,-0.56,0.55,0.0,2.69,66.44,-105.87,2.69,66.44,-105.87,0.68,0.26,-0.69,-0.02
0.0,268.94,70.87,57.06,268.94,70.87,57.06,0.54,0.31,-0.56,0.55,0.0,5.56,66.69,-95.12,5.56,66.69,-95.12,0.69,0.25,-0.67,-0.03
0.0,268.19,67.44,68.37,268.19,67.44,68.37,0.53,0.27,-0.59,0.54,0.0,4.13,66.69,-86.75,4.13,66.69,-86.75,0.71,0.25,-0.65,-0.03
1.0,271.5,66.81,68.06,271.5,66.81,68.06,0.54,0.25,-0.6,0.53,0.0,169.63,66.75,-79.37,169.63,66.75,-79.37,0.07,-0.59,-0.31,-0.74
1.0,270.06,65.81,73.5,270.06,65.81,73.5,0.53,0.25,-0.62,0.53,0.0,170.31,65.75,-68.37,170.31,65.75,-68.37,0.06,-0.57,-0.3,-0.76
3.0,270.5,65.06,76.81,270.5,65.06,76.81,0.53,0.23,-0.63,0.52,0.0,171.94,63.63,-64.44,171.94,63.63,-64.44,0.05,-0.56,-0.3,-0.77
3.0,271.19,64.87,79.37,271.19,64.87,79.37,0.52,0.23,-0.64,0.51,0.0,171.88,62.13,-63.06,171.88,62.13,-63.06,0.06,-0.54,-0.31,-0.78
3.0,269.69,64.37,84.31,269.69,64.37,84.31,0.51,0.24,-0.65,0.51,0.0,171.56,60.88,-61.5,171.56,60.88,-61.5,0.06,-0.53,-0.31,-0.79
3.0,269.25,64.75,86.87,269.25,64.75,86.87,0.5,0.24,-0.66,0.51,0.0,171.0,60.06,-59.75,171.0,60.06,-59.75,0.06,-0.52,-0.32,-0.79
3.0,268.25,64.25,90.37,268.25,64.25,90.37,0.48,0.25,-0.67,0.51,0.0,170.25,59.56,-60.63,170.25,59.56,-60.63,0.07,-0.52,-0.33,-0.79
3.0,265.75,63.25,95.5,265.75,63.25,95.5,0.46,0.26,-0.68,0.51,0.0,169.5,59.31,-64.19,169.5,59.31,-64.19,0.07,-0.52,-0.35,-0.77
3.0,262.69,62.38,98.37,262.69,62.38,98.37,0.44,0.27,-0.68,0.52,0.0,169.56,58.5,-69.5,169.56,58.5,-69.5,0.07,-0.52,-0.38,-0.76
3.0,258.31,61.69,98.69,258.31,61.69,98.69,0.42,0.29,-0.67,0.53,0.0,168.69,57.88,-73.0,168.69,57.88,-73.0,0.08,-0.52,-0.39,-0.75
3.0,254.81,61.75,97.31,254.81,61.75,97.31,0.41,0.31,-0.66,0.55,0.0,166.44,58.31,-76.56,166.44,58.31,-76.56,0.09,-0.52,-0.41,-0.74
3.0,251.81,61.19,97.5,251.81,61.19,97.5,0.39,0.32,-0.66,0.56,0.0,165.5,57.81,-84.69,165.5,57.81,-84.69,0.09,-0.53,-0.44,-0.72
3.0,247.88,60.13,99.62,247.88,60.13,99.62,0.37,0.34,-0.66,0.56,0.0,167.75,55.44,-91.56,167.75,55.44,-91.56,0.07,-0.54,-0.46,-0.7
3.0,246.13,61.56,99.25,246.13,61.56,99.25,0.37,0.36,-0.64,0.57,0.0,166.13,55.56,-96.69,166.13,55.56,-96.69,0.08,-0.55,-0.48,-0.68
3.0,246.63,63.94,97.19,246.63,63.94,97.19,0.38,0.38,-0.62,0.58,0.0,163.88,54.63,-106.87,163.88,54.63,-106.87,0.09,-0.57,-0.51,-0.64
3.0,244.94,64.44,96.81,244.94,64.44,96.81,0.36,0.39,-0.61,0.58,0.0,168.44,48.75,-113.75,168.44,48.75,-113.75,0.05,-0.57,-0.57,-0.59
3.0,241.88,65.81,96.44,241.88,65.81,96.44,0.35,0.43,-0.58,0.6,0.0,174.19,44.63,-114.06,174.19,44.63,-114.06,0.03,-0.56,-0.57,-0.59
3.0,240.13,67.75,96.69,240.13,67.75,96.69,0.34,0.45,-0.57,0.6,3.0,171.38,45.56,-114.94,171.38,45.56,-114.94,0.04,-0.56,-0.58,-0.59
3.0,237.19,66.12,100.69,237.19,66.12,100.69,0.31,0.45,-0.58,0.6,3.0,171.25,42.19,-120.06,171.25,42.19,-120.06,0.04,-0.55,-0.62,-0.56
3.0,232.0,63.31,104.94,232.0,63.31,104.94,0.28,0.48,-0.58,0.6,3.0,175.38,38.44,-120.06,175.38,38.44,-120.06,0.02,-0.54,-0.64,-0.55
3.0,227.19,64.56,110.75,227.19,64.56,110.75,0.25,0.53,-0.55,0.59,3.0,176.63,37.63,-118.5,176.63,37.63,-118.5,0.02,-0.53,-0.64,-0.56
3.0,224.13,64.44,118.31,224.13,64.44,118.31,0.23,0.56,-0.55,0.58,3.0,174.38,37.88,-118.56,174.38,37.88,-118.56,0.03,-0.52,-0.65,-0.56
3.0,223.56,61.81,125.5,223.56,61.81,125.5,0.22,0.56,-0.58,0.55,3.0,174.88,37.31,-117.56,174.88,37.31,-117.56,0.02,-0.51,-0.65,-0.57
3.0,223.75,58.94,132.69,223.75,58.94,132.69,0.21,0.58,-0.59,0.52,3.0,176.06,37.56,-112.44,176.06,37.56,-112.44,0.02,-0.49,-0.64,-0.59
3.0,224.38,57.81,138.44,224.38,57.81,138.44,0.21,0.6,-0.59,0.5,3.0,174.38,38.38,-109.0,174.38,38.38,-109.0,0.03,-0.48,-0.63,-0.61
3.0,227.56,58.75,143.44,227.56,58.75,143.44,0.22,0.61,-0.58,0.49,2.0,171.38,40.38,-106.25,171.38,40.38,-106.25,0.05,-0.47,-0.61,-0.64
3.0,230.5,58.13,148.13,230.5,58.13,148.13,0.22,0.62,-0.59,0.47,2.0,171.75,42.13,-98.75,171.75,42.13,-98.75,0.05,-0.46,-0.58,-0.66
3.0,233.31,57.56,150.69,233.31,57.56,150.69,0.24,0.62,-0.59,0.46,2.0,172.56,41.75,-97.5,172.56,41.75,-97.5,0.05,-0.46,-0.58,-0.67
3.0,239.19,60.31,152.94,239.19,60.31,152.94,0.27,0.6,-0.59,0.46,2.0,170.31,43.81,-94.62,170.31,43.81,-94.62,0.06,-0.46,-0.55,-0.69
3.0,244.13,62.0,153.94,244.13,62.0,153.94,0.29,0.59,-0.6,0.45,2.0,172.75,45.38,-87.5,172.75,45.38,-87.5,0.05,-0.46,-0.52,-0.72
3.0,247.19,61.88,153.06,247.19,61.88,153.06,0.31,0.56,-0.62,0.45,2.0,175.0,44.31,-88.37,175.0,44.31,-88.37,0.03,-0.47,-0.52,-0.71
3.0,253.38,65.06,149.88,253.38,65.06,149.88,0.35,0.52,-0.63,0.46,2.0,171.63,46.0,-90.31,171.63,46.0,-90.31,0.07,-0.48,-0.53,-0.7
3.0,259.63,69.5,146.06,259.63,69.5,146.06,0.39,0.49,-0.63,0.46,2.0,165.81,50.13,-89.25,165.81,50.13,-89.25,0.09,-0.49,-0.51,-0.71
3.0,261.88,68.81,140.5,261.88,68.81,140.5,0.4,0.44,-0.66,0.45,2.0,166.5,52.06,-88.31,166.5,52.06,-88.31,0.08,-0.51,-0.48,-0.71
3.0,264.69,68.12,129.19,264.69,68.12,129.19,0.43,0.38,-0.68,0.46,2.0,170.63,52.75,-89.06,170.63,52.75,-89.06,0.05,-0.53,-0.46,-0.71
3.0,266.81,69.25,116.12,266.81,69.25,116.12,0.45,0.35,-0.67,0.48,2.0,171.69,54.19,-91.5,171.69,54.19,-91.5,0.05,-0.55,-0.46,-0.69
3.0,267.63,69.87,109.19,267.63,69.87,109.19,0.46,0.33,-0.67,0.48,2.0,170.94,55.5,-97.31,170.94,55.5,-97.31,0.05,-0.58,-0.46,-0.67
3.0,267.5,67.0,107.87,267.5,67.0,107.87,0.46,0.29,-0.69,0.48,2.0,173.38,54.94,-102.81,173.38,54.94,-102.81,0.03,-0.6,-0.45,-0.66
3.0,268.63,65.25,100.44,268.63,65.25,100.44,0.49,0.26,-0.67,0.49,2.0,175.88,55.81,-104.12,175.88,55.81,-104.12,0.02,-0.62,-0.43,-0.65
3.0,273.94,70.31,85.56,273.94,70.31,85.56,0.53,0.28,-0.63,0.49,2.0,178.5,55.63,-107.56,178.5,55.63,-107.56,0.0,-0.64,-0.43,-0.64
3.0,271.63,69.44,83.87,271.63,69.44,83.87,0.51,0.28,-0.63,0.51,2.0,183.0,52.06,-114.25,183.0,52.06,-114.25,-0.03,-0.66,-0.45,-0.6
3.0,271.19,69.31,77.62,271.19,69.31,77.62,0.54,0.28,-0.61,0.52,2.0,187.75,47.69,-120.44,187.75,47.69,-120.44,-0.04,-0.68,-0.46,-0.56
3.0,275.06,71.69,58.13,275.06,71.69,58.13,0.57,0.29,-0.57,0.52,2.0,191.25,46.19,-122.75,191.25,46.19,-122.75,-0.06,-0.7,-0.45,-0.56
3.0,274.44,71.19,57.13,274.44,71.19,57.13,0.56,0.28,-0.58,0.52,2.0,196.81,44.13,-122.19,196.81,44.13,-122.19,-0.09,-0.7,-0.45,-0.55
3.0,274.69,68.31,61.75,274.69,68.31,61.75,0.57,0.24,-0.59,0.52,2.0,201.25,41.31,-123.19,201.25,41.31,-123.19,-0.11,-0.71,-0.46,-0.53
3.0,277.38,68.62,54.94,277.38,68.62,54.94,0.58,0.26,-0.57,0.51,3.0,207.63,38.94,-120.69,207.63,38.94,-120.69,-0.14,-0.7,-0.45,-0.54
3.0,275.56,69.87,56.19,275.56,69.87,56.19,0.57,0.27,-0.58,0.52,3.0,212.0,39.06,-114.37,212.0,39.06,-114.37,-0.17,-0.68,-0.43,-0.57
3.0,277.19,70.31,58.75,277.19,70.31,58.75,0.58,0.26,-0.59,0.5,3.0,215.31,38.0,-109.37,215.31,38.0,-109.37,-0.19,-0.66,-0.43,-0.58
3.0,279.06,71.19,67.37,279.06,71.19,67.37,0.56,0.26,-0.62,0.48,3.0,216.75,37.63,-104.81,216.75,37.63,-104.81,-0.2,-0.64,-0.42,-0.61
3.0,278.75,71.94,77.75,278.75,71.94,77.75,0.55,0.27,-0.63,0.47,3.0,216.56,37.44,-99.62,216.56,37.44,-99.62,-0.2,-0.62,-0.42,-0.63
3.0,280.0,73.69,80.94,280.0,73.69,80.94,0.55,0.29,-0.63,0.46,3.0,211.56,38.94,-96.62,211.56,38.94,-96.62,-0.18,-0.6,-0.43,-0.66
3.0,279.63,76.25,88.25,279.63,76.25,88.25,0.54,0.32,-0.63,0.46,3.0,209.0,38.38,-93.44,209.0,38.38,-93.44,-0.18,-0.57,-0.44,-0.68
3.0,280.5,77.19,95.56,280.5,77.19,95.56,0.54,0.32,-0.64,0.44,3.0,208.69,37.06,-87.94,208.69,37.06,-87.94,-0.18,-0.54,-0.43,-0.7
3.0,282.94,76.25,101.0,282.94,76.25,101.0,0.54,0.3,-0.66,0.43,3.0,208.75,35.44,-84.25,208.75,35.44,-84.25,-0.19,-0.51,-0.44,-0.71
3.0,282.25,74.5,112.75,282.25,74.5,112.75,0.51,0.31,-0.68,0.42,3.0,210.38,31.5,-84.75,210.38,31.5,-84.75,-0.19,-0.49,-0.48,-0.71
3.0,280.81,73.19,122.44,280.81,73.19,122.44,0.5,0.33,-0.69,0.41,3.0,206.75,29.81,-84.5,206.75,29.81,-84.5,-0.16,-0.45,-0.5,-0.72
3.0,281.81,72.62,124.87,281.81,72.62,124.87,0.5,0.32,-0.7,0.4,3.0,202.75,28.5,-82.87,202.75,28.5,-82.87,-0.14,-0.42,-0.52,-0.73
3.0,281.13,70.19,127.87,281.13,70.19,127.87,0.48,0.31,-0.72,0.4,3.0,199.13,27.0,-84.94,199.13,27.0,-84.94,-0.11,-0.4,-0.56,-0.72
3.0,278.13,67.44,128.25,278.13,67.44,128.25,0.46,0.3,-0.72,0.41,3.0,195.75,24.81,-91.87,195.75,24.81,-91.87,-0.09,-0.38,-0.62,-0.68
3.0,276.44,66.81,124.75,276.44,66.81,124.75,0.46,0.3,-0.72,0.42,3.0,193.13,22.12,-98.75,193.13,22.12,-98.75,-0.06,-0.36,-0.68,-0.64
3.0,268.56,63.13,122.75,268.56,63.13,122.75,0.43,0.3,-0.73,0.44,3.0,190.06,20.44,-103.75,190.06,20.44,-103.75,-0.06,-0.33,-0.71,-0.61
3.0,263.25,63.06,120.81,263.25,63.06,120.81,0.42,0.33,-0.7,0.47,3.0,193.94,15.88,-105.44,193.94,15.88,-105.44,-0.08,-0.31,-0.73,-0.6
3.0,261.63,63.81,116.0,261.63,63.81,116.0,0.4,0.33,-0.7,0.49,3.0,196.81,12.38,-106.31,196.81,12.38,-106.31,-0.09,-0.28,-0.75,-0.59
3.0,250.88,59.06,114.0,250.88,59.06,114.0,0.34,0.35,-0.69,0.53,3.0,197.81,10.06,-107.25,197.81,10.06,-107.25,-0.09,-0.26,-0.76,-0.59
3.0,238.44,57.81,110.12,238.44,57.81,110.12,0.3,0.41,-0.64,0.57,3.0,191.44,11.88,-104.56,191.44,11.88,-104.56,-0.05,-0.24,-0.74,-0.62
3.0,228.63,60.31,105.81,228.63,60.31,105.81,0.25,0.48,-0.58,0.61,3.0,183.63,15.13,-99.44,183.63,15.13,-99.44,-0.01,-0.22,-0.72,-0.66
3.0,219.94,61.31,108.87,219.94,61.31,108.87,0.21,0.53,-0.55,0.61,3.0,180.44,16.06,-95.87,180.44,16.06,-95.87,0.0,-0.2,-0.7,-0.68
3.0,219.94,62.75,115.69,219.94,62.75,115.69,0.22,0.55,-0.55,0.58,3.0,177.63,17.37,-88.87,177.63,17.37,-88.87,0.01,-0.2,-0.67,-0.71
3.0,223.88,60.81,124.19,223.88,60.81,124.19,0.22,0.55,-0.59,0.55,3.0,174.5,19.37,-80.69,174.5,19.37,-80.69,0.04,-0.19,-0.61,-0.77
3.0,224.5,59.38,131.94,224.5,59.38,131.94,0.21,0.58,-0.58,0.53,3.0,175.38,20.31,-76.75,175.38,20.31,-76.75,0.03,-0.2,-0.59,-0.78
3.0,222.63,60.31,136.0,222.63,60.31,136.0,0.21,0.61,-0.55,0.53,3.0,175.25,21.94,-74.62,175.25,21.94,-74.62,0.03,-0.21,-0.58,-0.79
3.0,223.06,62.25,138.69,223.06,62.25,138.69,0.21,0.63,-0.53,0.53,3.0,175.63,23.69,-73.12,175.63,23.69,-73.12,0.03,-0.23,-0.56,-0.79
3.0,224.94,62.56,141.88,224.94,62.56,141.88,0.22,0.63,-0.54,0.52,3.0,176.81,24.75,-72.81,176.81,24.75,-72.81,0.02,-0.25,-0.55,-0.8
3.0,230.06,62.88,145.06,230.06,62.88,145.06,0.24,0.62,-0.56,0.5,3.0,173.88,26.94,-71.56,173.88,26.94,-71.56,0.04,-0.26,-0.54,-0.8
3.0,234.44,62.56,145.88,234.44,62.56,145.88,0.26,0.6,-0.58,0.49,3.0,171.13,29.81,-70.5,171.13,29.81,-70.5,0.06,-0.27,-0.53,-0.8
3.0,238.19,63.75,146.06,238.19,63.75,146.06,0.27,0.59,-0.58,0.49,3.0,171.19,32.75,-70.56,171.19,32.75,-70.56,0.06,-0.3,-0.52,-0.8
3.0,244.19,65.87,145.75,244.19,65.87,145.75,0.31,0.57,-0.59,0.49,3.0,172.06,34.5,-73.56,172.06,34.5,-73.56,0.05,-0.33,-0.53,-0.78
3.0,252.31,68.31,142.63,252.31,68.31,142.63,0.35,0.52,-0.61,0.48,3.0,170.88,35.81,-75.5,170.88,35.81,-75.5,0.07,-0.34,-0.54,-0.77
3.0,257.75,69.5,139.25,257.75,69.5,139.25,0.38,0.48,-0.63,0.47,3.0,166.69,38.44,-76.81,166.69,38.44,-76.81,0.1,-0.35,-0.54,-0.76
3.0,259.31,68.12,134.75,259.31,68.12,134.75,0.39,0.45,-0.65,0.47,3.0,162.0,42.13,-79.69,162.0,42.13,-79.69,0.11,-0.37,-0.55,-0.74
3.0,261.44,68.56,126.0,261.44,68.56,126.0,0.41,0.41,-0.66,0.47,3.0,165.75,41.81,-84.62,165.75,41.81,-84.62,0.08,-0.4,-0.56,-0.72
3.0,264.0,69.25,117.12,264.0,69.25,117.12,0.43,0.37,-0.66,0.48,3.0,167.38,42.63,-89.19,167.38,42.63,-89.19,0.08,-0.43,-0.57,-0.7
3.0,265.25,68.69,112.5,265.25,68.69,112.5,0.45,0.34,-0.67,0.48,3.0,166.69,44.56,-93.19,166.69,44.56,-93.19,0.08,-0.45,-0.57,-0.68
3.0,266.19,67.56,109.62,266.19,67.56,109.62,0.46,0.31,-0.68,0.48,3.0,167.25,46.63,-96.37,167.25,46.63,-96.37,0.07,-0.49,-0.55,-0.67
3.0,270.81,67.94,101.25,270.81,67.94,101.25,0.5,0.27,-0.67,0.48,3.0,173.56,46.19,-97.25,173.56,46.19,-97.25,0.02,-0.51,-0.53,-0.68
3.0,276.81,67.87,87.37,276.81,67.87,87.37,0.54,0.23,-0.65,0.47,3.0,182.63,43.81,-95.62,182.63,43.81,-95.62,-0.02,-0.52,-0.51,-0.68
3.0,276.81,69.06,80.87,276.81,69.06,80.87,0.54,0.26,-0.64,0.49,3.0,180.69,45.63,-97.12,180.69,45.63,-97.12,0.0,-0.53,-0.51,-0.67
3.0,275.63,70.81,75.44,275.63,70.81,75.44,0.55,0.27,-0.62,0.5,3.0,179.88,45.0,-99.62,179.88,45.0,-99.62,0.0,-0.53,-0.53,-0.66
3.0,278.19,68.62,65.87,278.19,68.62,65.87,0.58,0.23,-0.61,0.49,3.0,182.13,43.06,-100.31,182.13,43.06,-100.31,-0.01,-0.53,-0.54,-0.66
3.0,279.81,68.44,65.94,279.81,68.44,65.94,0.57,0.23,-0.62,0.49,3.0,185.94,40.06,-99.94,185.94,40.06,-99.94,-0.03,-0.52,-0.55,-0.66
3.0,277.38,68.37,72.87,277.38,68.37,72.87,0.56,0.24,-0.62,0.49,3.0,186.56,39.06,-99.06,186.56,39.06,-99.06,-0.04,-0.51,-0.55,-0.66
3.0,277.88,69.94,70.5,277.88,69.94,70.5,0.56,0.25,-0.62,0.49,3.0,186.44,38.19,-99.19,186.44,38.19,-99.19,-0.04,-0.5,-0.56,-0.66
3.0,278.19,71.0,71.5,278.19,71.0,71.5,0.56,0.26,-0.62,0.48,3.0,186.06,37.31,-99.94,186.06,37.31,-99.94,-0.03,-0.49,-0.57,-0.66
3.0,278.0,71.5,78.0,278.0,71.5,78.0,0.55,0.27,-0.63,0.48,3.0,184.5,36.94,-101.25,184.5,36.94,-101.25,-0.03,-0.49,-0.58,-0.65
3.0,277.0,71.94,85.0,277.0,71.94,85.0,0.53,0.28,-0.64,0.47,3.0,184.13,36.13,-102.37,184.13,36.13,-102.37,-0.02,-0.47,-0.61,-0.64
3.0,274.88,72.94,92.0,274.88,72.94,92.0,0.51,0.32,-0.64,0.48,3.0,177.0,35.44,-107.44,177.0,35.44,-107.44,0.02,-0.46,-0.64,-0.61
3.0,274.25,74.31,95.81,274.25,74.31,95.81,0.51,0.33,-0.64,0.47,3.0,166.13,38.56,-108.25,166.13,38.56,-108.25,0.07,-0.43,-0.66,-0.61
3.0,273.81,74.25,99.37,273.81,74.25,99.37,0.5,0.34,-0.64,0.47,3.0,162.81,39.38,-107.06,162.81,39.38,-107.06,0.1,-0.41,-0.66,-0.62
3.0,270.31,73.0,107.5,270.31,73.0,107.5,0.47,0.36,-0.65,0.48,3.0,162.81,38.5,-104.75,162.81,38.5,-104.75,0.09,-0.39,-0.67,-0.63
3.0,269.69,73.81,109.94,269.69,73.81,109.94,0.48,0.37,-0.64,0.48,3.0,165.25,36.31,-103.94,165.25,36.31,-103.94,0.08,-0.38,-0.67,-0.63
3.0,269.5,73.25,112.06,269.5,73.25,112.06,0.46,0.37,-0.65,0.47,3.0,165.19,35.63,-102.81,165.19,35.63,-102.81,0.08,-0.36,-0.67,-0.64
3.0,266.81,70.94,116.19,266.81,70.94,116.19,0.44,0.38,-0.66,0.48,3.0,167.44,33.19,-101.31,167.44,33.19,-101.31,0.06,-0.34,-0.68,-0.65
3.0,265.56,70.81,118.19,265.56,70.81,118.19,0.44,0.38,-0.66,0.48,3.0,170.88,29.75,-98.06,170.88,29.75,-98.06,0.06,-0.31,-0.68,-0.67
3.0,266.06,70.81,118.69,266.06,70.81,118.69,0.44,0.38,-0.66,0.47,3.0,160.88,32.31,-96.06,160.88,32.31,-96.06,0.15,-0.27,-0.69,-0.66
3.0,265.69,69.37,120.12,265.69,69.37,120.12,0.43,0.37,-0.67,0.47,3.0,145.5,35.38,-96.12,145.5,35.38,-96.12,0.22,-0.22,-0.71,-0.64
3.0,263.56,68.06,122.25,263.56,68.06,122.25,0.42,0.39,-0.67,0.47,3.0,136.38,36.25,-97.44,136.38,36.25,-97.44,0.25,-0.17,-0.72,-0.62
3.0,263.31,68.62,123.5,263.31,68.62,123.5,0.42,0.39,-0.67,0.47,3.0,132.13,34.5,-97.0,132.13,34.5,-97.0,0.29,-0.12,-0.73,-0.61
3.0,264.25,68.69,124.0,264.25,68.69,124.0,0.42,0.39,-0.67,0.47,3.0,122.87,35.38,-96.19,122.87,35.38,-96.19,0.34,-0.08,-0.74,-0.58
3.0,263.5,68.0,126.37,263.5,68.0,126.37,0.41,0.4,-0.68,0.47,2.0,109.25,37.69,-100.19,109.25,37.69,-100.19,0.4,-0.02,-0.76,-0.51
3.0,260.31,66.81,129.38,260.31,66.81,129.38,0.39,0.42,-0.67,0.47,2.0,96.31,39.81,-104.75,96.31,39.81,-104.75,0.43,0.03,-0.78,-0.46
3.0,259.19,67.44,131.38,259.19,67.44,131.38,0.39,0.44,-0.66,0.47,2.0,91.31,39.38,-106.12,91.31,39.38,-106.12,0.44,0.05,-0.78,-0.45
3.0,260.81,68.81,132.19,260.81,68.81,132.19,0.4,0.43,-0.66,0.47,2.0,90.94,39.19,-106.25,90.94,39.19,-106.25,0.44,0.06,-0.78,-0.45
3.0,260.25,67.81,132.56,260.25,67.81,132.56,0.39,0.43,-0.66,0.47,2.0,90.12,39.13,-106.62,90.12,39.13,-106.62,0.44,0.06,-0.78,-0.44
3.0,259.0,67.62,132.88,259.0,67.62,132.88,0.39,0.44,-0.66,0.47,2.0,87.19,39.88,-106.81,87.19,39.88,-106.81,0.46,0.07,-0.78,-0.42
3.0,259.0,67.94,133.69,259.0,67.94,133.69,0.39,0.44,-0.66,0.47,2.0,82.75,41.5,-107.37,82.75,41.5,-107.37,0.47,0.08,-0.78,-0.4
3.0,258.75,66.94,134.06,258.75,66.94,134.06,0.38,0.44,-0.67,0.47,2.0,77.0,44.0,-108.0,77.0,44.0,-108.0,0.49,0.08,-0.78,-0.38
3.0,257.69,66.25,135.0,257.69,66.25,135.0,0.37,0.45,-0.66,0.47,2.0,73.25,45.81,-108.19,73.25,45.81,-108.19,0.5,0.08,-0.78,-0.37
3.0,256.56,66.06,135.75,256.56,66.06,135.75,0.37,0.46,-0.66,0.47,2.0,72.31,46.19,-108.0,72.31,46.19,-108.0,0.51,0.09,-0.78,-0.37
3.0,257.0,66.19,136.56,257.0,66.19,136.56,0.37,0.46,-0.66,0.46,2.0,70.19,46.94,-108.44,70.19,46.94,-108.44,0.52,0.09,-0.77,-0.35
3.0,255.38,65.25,137.25,255.38,65.25,137.25,0.36,0.46,-0.66,0.47,2.0,65.87,48.88,-108.56,65.87,48.88,-108.56,0.53,0.09,-0.77,-0.33
3.0,253.06,64.69,138.25,253.06,64.69,138.25,0.35,0.48,-0.66,0.47,2.0,60.81,51.69,-108.56,60.81,51.69,-108.56,0.55,0.08,-0.77,-0.31
3.0,251.94,63.81,138.75,251.94,63.81,138.75,0.33,0.48,-0.66,0.47,2.0,55.75,54.44,-108.0,55.75,54.44,-108.0,0.57,0.09,-0.76,-0.29
3.0,246.5,60.88,139.13,246.5,60.88,139.13,0.31,0.49,-0.66,0.47,2.0,48.31,57.38,-107.81,48.31,57.38,-107.81,0.59,0.1,-0.76,-0.26
3.0,239.19,57.75,138.5,239.19,57.75,138.5,0.27,0.51,-0.66,0.48,2.0,43.06,58.25,-106.81,43.06,58.25,-106.81,0.61,0.12,-0.75,-0.24
3.0,227.44,53.25,135.94,227.44,53.25,135.94,0.21,0.53,-0.66,0.49,2.0,37.75,61.13,-102.31,37.75,61.13,-102.31,0.63,0.12,-0.73,-0.22
3.0,217.5,50.5,133.75,217.5,50.5,133.75,0.17,0.55,-0.65,0.5,2.0,36.69,61.31,-100.87,36.69,61.31,-100.87,0.64,0.13,-0.73,-0.21
3.0,205.75,45.31,130.19,205.75,45.31,130.19,0.12,0.55,-0.65,0.51,2.0,35.75,61.0,-100.94,35.75,61.0,-100.94,0.64,0.14,-0.73,-0.21
3.0,195.56,42.25,127.87,195.56,42.25,127.87,0.05,0.57,-0.63,0.52,2.0,31.81,62.25,-98.56,31.81,62.25,-98.56,0.67,0.15,-0.71,-0.17
3.0,181.63,40.44,123.81,181.63,40.44,123.81,-0.01,0.61,-0.58,0.54,2.0,24.94,64.44,-92.12,24.94,64.44,-92.12,0.69,0.16,-0.69,-0.14
3.0,170.69,38.5,121.25,170.69,38.5,121.25,-0.06,0.62,-0.56,0.54,2.0,20.87,65.0,-86.62,20.87,65.0,-86.62,0.71,0.18,-0.67,-0.12
3.0,162.38,35.56,120.5,162.38,35.56,120.5,-0.09,0.63,-0.56,0.53,2.0,16.81,64.87,-83.81,16.81,64.87,-83.81,0.72,0.2,-0.66,-0.1
3.0,156.88,33.38,118.56,156.88,33.38,118.56,-0.12,0.62,-0.55,0.54,2.0,12.25,65.94,-80.87,12.25,65.94,-80.87,0.73,0.21,-0.65,-0.07
3.0,150.81,32.19,113.25,150.81,32.19,113.25,-0.16,0.61,-0.53,0.57,2.0,8.38,67.94,-80.12,8.38,67.94,-80.12,0.73,0.2,-0.66,-0.05
3.0,144.75,31.31,106.12,144.75,31.31,106.12,-0.2,0.6,-0.49,0.6,2.0,8.31,68.81,-84.56,8.31,68.81,-84.56,0.71,0.2,-0.67,-0.06
3.0,141.19,31.81,99.62,141.19,31.81,99.62,-0.23,0.59,-0.46,0.62,2.0,9.38,68.31,-89.0,9.38,68.31,-89.0,0.71,0.21,-0.67,-0.06
3.0,137.06,30.94,96.69,137.06,30.94,96.69,-0.25,0.59,-0.45,0.62,2.0,8.0,68.69,-89.19,8.0,68.69,-89.19,0.71,0.21,-0.67,-0.04
3.0,133.0,28.94,97.0,133.0,28.94,97.0,-0.27,0.59,-0.45,0.61,2.0,5.44,70.19,-86.81,5.44,70.19,-86.81,0.71,0.21,-0.67,-0.03
3.0,130.38,27.75,97.5,130.38,27.75,97.5,-0.28,0.6,-0.45,0.6,2.0,3.5,69.56,-84.25,3.5,69.56,-84.25,0.72,0.22,-0.66,-0.02
3.0,127.75,27.0,97.25,127.75,27.0,97.25,-0.29,0.6,-0.45,0.6,2.0,359.19,69.5,-81.94,359.19,69.5,-81.94,0.72,0.24,-0.65,0.0
3.0,125.19,26.44,96.25,125.19,26.44,96.25,-0.31,0.6,-0.44,0.6,2.0,355.69,69.87,-78.56,355.69,69.87,-78.56,0.73,0.26,-0.63,0.04
3.0,124.12,26.44,94.56,124.12,26.44,94.56,-0.32,0.6,-0.43,0.6,2.0,350.88,70.19,-74.75,350.88,70.19,-74.75,0.74,0.28,-0.62,0.07
3.0,124.0,26.69,93.37,124.0,26.69,93.37,-0.32,0.59,-0.42,0.61,2.0,347.94,70.81,-74.12,347.94,70.81,-74.12,0.73,0.28,-0.61,0.08
3.0,124.44,26.56,93.06,124.44,26.56,93.06,-0.32,0.59,-0.42,0.61,2.0,348.25,71.12,-75.75,348.25,71.12,-75.75,0.73,0.28,-0.62,0.07
3.0,124.12,25.87,92.0,124.12,25.87,92.0,-0.33,0.58,-0.42,0.62,2.0,348.31,71.69,-77.12,348.31,71.69,-77.12,0.73,0.27,-0.62,0.07
3.0,120.87,24.87,89.56,120.87,24.87,89.56,-0.36,0.57,-0.41,0.62,2.0,347.0,72.06,-75.81,347.0,72.06,-75.81,0.73,0.28,-0.62,0.09
3.0,117.0,23.69,87.31,117.0,23.69,87.31,-0.39,0.57,-0.38,0.62,2.0,342.63,73.31,-70.81,342.63,73.31,-70.81,0.73,0.28,-0.61,0.12
3.0,110.87,22.62,83.81,110.87,22.62,83.81,-0.43,0.56,-0.35,0.61,2.0,337.94,74.94,-68.44,337.94,74.94,-68.44,0.72,0.29,-0.61,0.14
3.0,106.5,22.5,80.06,106.5,22.5,80.06,-0.46,0.56,-0.32,0.61,3.0,340.31,74.0,-83.5,340.31,74.0,-83.5,0.7,0.31,-0.64,0.11
3.0,103.81,21.87,77.81,103.81,21.87,77.81,-0.49,0.55,-0.3,0.61,3.0,344.25,70.19,-99.87,344.25,70.19,-99.87,0.68,0.33,-0.65,0.09
3.0,100.5,22.12,73.56,100.5,22.12,73.56,-0.51,0.53,-0.27,0.62,3.0,346.44,66.62,-104.12,346.44,66.62,-104.12,0.67,0.36,-0.64,0.08
2.0,100.0,22.94,69.94,100.0,22.94,69.94,-0.52,0.52,-0.25,0.62,3.0,346.81,64.5,-106.87,346.81,64.5,-106.87,0.66,0.39,-0.64,0.08
2.0,98.44,22.56,68.37,98.44,22.56,68.37,-0.54,0.52,-0.24,0.62,3.0,349.19,62.13,-111.37,349.19,62.13,-111.37,0.64,0.4,-0.65,0.06
2.0,96.87,22.69,65.37,96.87,22.69,65.37,-0.56,0.5,-0.22,0.63,3.0,352.31,60.0,-115.19,352.31,60.0,-115.19,0.63,0.41,-0.66,0.04
2.0,95.69,23.25,62.31,95.69,23.25,62.31,-0.57,0.49,-0.19,0.63,3.0,353.19,58.81,-117.87,353.19,58.81,-117.87,0.61,0.41,-0.67,0.04
2.0,93.56,23.81,60.06,93.56,23.81,60.06,-0.59,0.49,-0.17,0.62,3.0,351.75,58.69,-120.25,351.75,58.69,-120.25,0.61,0.42,-0.68,0.04
2.0,92.69,24.62,58.13,92.69,24.62,58.13,-0.6,0.48,-0.16,0.62,3.0,350.5,59.13,-121.19,350.5,59.13,-121.19,0.6,0.42,-0.68,0.05
2.0,92.0,24.19,57.38,92.0,24.19,57.38,-0.6,0.48,-0.16,0.62,3.0,348.94,60.38,-122.06,348.94,60.38,-122.06,0.6,0.41,-0.68,0.06
2.0,92.12,24.69,53.94,92.12,24.69,53.94,-0.61,0.46,-0.14,0.63,3.0,348.0,61.06,-122.44,348.0,61.06,-122.44,0.61,0.41,-0.68,0.07
2.0,92.87,24.31,51.56,92.87,24.31,51.56,-0.61,0.45,-0.13,0.64,3.0,346.75,61.75,-121.44,346.75,61.75,-121.44,0.61,0.41,-0.67,0.07
2.0,95.0,22.56,50.31,95.0,22.56,50.31,-0.6,0.43,-0.15,0.66,3.0,345.69,62.38,-119.94,345.69,62.38,-119.94,0.62,0.41,-0.67,0.08
2.0,94.69,23.25,46.44,94.69,23.25,46.44,-0.61,0.41,-0.12,0.66,3.0,345.63,62.44,-118.75,345.63,62.44,-118.75,0.62,0.41,-0.66,0.08
2.0,93.5,24.81,44.88,93.5,24.81,44.88,-0.62,0.41,-0.1,0.66,3.0,345.31,62.56,-118.12,345.31,62.56,-118.12,0.62,0.41,-0.66,0.08
2.0,93.12,25.69,45.56,93.12,25.69,45.56,-0.62,0.43,-0.09,0.65,3.0,346.13,62.5,-117.75,346.13,62.5,-117.75,0.62,0.41,-0.66,0.07
2.0,92.0,28.12,46.81,92.0,28.12,46.81,-0.62,0.45,-0.07,0.64,3.0,347.38,62.38,-117.69,347.38,62.38,-117.69,0.62,0.4,-0.67,0.07
2.0,91.12,29.31,49.19,91.12,29.31,49.19,-0.62,0.46,-0.07,0.63,3.0,348.19,62.25,-117.81,348.19,62.25,-117.81,0.62,0.4,-0.67,0.06
2.0,91.44,30.19,49.06,91.44,30.19,49.06,-0.62,0.46,-0.06,0.64,3.0,349.13,62.13,-117.81,349.13,62.13,-117.81,0.62,0.4,-0.67,0.06
2.0,92.5,31.44,47.56,92.5,31.44,47.56,-0.61,0.46,-0.05,0.64,3.0,350.06,62.13,-117.44,350.06,62.13,-117.44,0.62,0.39,-0.67,0.05
2.0,92.44,33.06,48.56,92.44,33.06,48.56,-0.61,0.48,-0.04,0.63,3.0,350.5,62.44,-117.19,350.5,62.44,-117.19,0.63,0.38,-0.68,0.05
2.0,89.94,35.0,50.56,89.94,35.0,50.56,-0.62,0.49,-0.02,0.61,3.0,350.56,62.69,-117.37,350.56,62.69,-117.37,0.63,0.38,-0.68,0.05
2.0,90.87,37.88,50.31,90.87,37.88,50.31,-0.6,0.5,0.0,0.62,3.0,351.25,62.81,-117.5,351.25,62.81,-117.5,0.63,0.37,-0.68,0.05
2.0,93.31,40.81,52.19,93.31,40.81,52.19,-0.58,0.53,0.01,0.62,3.0,352.19,62.63,-117.25,352.19,62.63,-117.25,0.63,0.37,-0.68,0.04
2.0,95.69,42.81,55.44,95.69,42.81,55.44,-0.56,0.54,0.01,0.63,3.0,352.38,62.81,-116.25,352.38,62.81,-116.25,0.63,0.37,-0.68,0.04
2.0,99.56,44.69,55.5,99.56,44.69,55.5,-0.53,0.55,0.0,0.65,3.0,352.69,62.94,-115.37,352.69,62.94,-115.37,0.63,0.37,-0.68,0.04
2.0,104.37,46.31,52.31,104.37,46.31,52.31,-0.51,0.53,0.01,0.67,3.0,352.88,63.19,-114.81,352.88,63.19,-114.81,0.64,0.36,-0.68,0.04
2.0,107.56,47.5,47.81,107.56,47.5,47.81,-0.5,0.52,0.02,0.69,3.0,352.81,63.56,-114.12,352.81,63.56,-114.12,0.64,0.36,-0.68,0.04
2.0,108.37,48.31,44.38,108.37,48.31,44.38,-0.5,0.51,0.04,0.7,3.0,353.0,63.69,-113.69,353.0,63.69,-113.69,0.64,0.36,-0.68,0.04
2.0,111.56,48.0,41.31,111.56,48.0,41.31,-0.48,0.49,0.02,0.72,3.0,353.0,63.81,-113.44,353.0,63.81,-113.44,0.64,0.36,-0.68,0.04
2.0,114.62,44.0,40.5,114.62,44.0,40.5,-0.47,0.47,-0.02,0.75,3.0,352.88,64.12,-113.19,352.88,64.12,-113.19,0.64,0.35,-0.68,0.04
2.0,116.06,40.81,39.25,116.06,40.81,39.25,-0.47,0.45,-0.03,0.75,3.0,353.13,64.37,-113.56,353.13,64.37,-113.56,0.64,0.35,-0.68,0.04
2.0,114.81,40.75,38.63,114.81,40.75,38.63,-0.48,0.45,-0.02,0.75,3.0,353.5,64.44,-113.75,353.5,64.44,-113.75,0.64,0.35,-0.68,0.04
2.0,115.5,39.44,36.69,115.5,39.44,36.69,-0.48,0.44,-0.03,0.76,3.0,353.31,64.56,-113.25,353.31,64.56,-113.25,0.64,0.35,-0.68,0.04
2.0,116.37,39.13,36.94,116.37,39.13,36.94,-0.47,0.43,-0.04,0.76,3.0,352.69,64.87,-112.31,352.69,64.87,-112.31,0.65,0.35,-0.68,0.04
2.0,116.94,39.5,37.63,116.94,39.5,37.63,-0.47,0.44,-0.04,0.77,3.0,352.38,65.62,-112.75,352.38,65.62,-112.75,0.65,0.33,-0.68,0.04
2.0,117.5,38.88,37.75,117.5,38.88,37.75,-0.47,0.44,-0.05,0.77,3.0,355.25,65.31,-112.19,355.25,65.31,-112.19,0.65,0.33,-0.69,0.03
2.0,117.75,38.0,37.31,117.75,38.0,37.31,-0.47,0.43,-0.05,0.77,3.0,355.38,64.94,-112.19,355.38,64.94,-112.19,0.65,0.33,-0.69,0.03
2.0,117.75,37.88,37.0,117.75,37.88,37.0,-0.47,0.43,-0.05,0.77,3.0,355.06,65.06,-110.94,355.06,65.06,-110.94,0.65,0.33,-0.68,0.03
2.0,118.31,37.5,36.19,118.31,37.5,36.19,-0.46,0.42,-0.05,0.78,3.0,355.13,65.06,-111.0,355.13,65.06,-111.0,0.65,0.33,-0.68,0.03
2.0,119.37,37.63,35.44,119.37,37.63,35.44,-0.45,0.42,-0.05,0.78,3.0,354.63,65.31,-110.94,354.63,65.31,-110.94,0.65,0.33,-0.68,0.03
2.0,119.75,39.38,36.81,119.75,39.38,36.81,-0.45,0.44,-0.05,0.77,3.0,354.38,65.5,-111.0,354.38,65.5,-111.0,0.65,0.33,-0.68,0.03
2.0,119.0,40.13,39.0,119.0,40.13,39.0,-0.45,0.44,-0.05,0.77,3.0,354.31,65.56,-112.0,354.31,65.56,-112.0,0.65,0.33,-0.69,0.03
2.0,120.69,39.63,37.31,120.69,39.63,37.31,-0.44,0.44,-0.05,0.78,3.0,354.94,65.37,-112.69,354.94,65.37,-112.69,0.65,0.33,-0.69,0.03
2.0,120.25,38.13,37.69,120.25,38.13,37.69,-0.45,0.43,-0.06,0.78,3.0,356.5,64.62,-113.31,356.5,64.62,-113.31,0.64,0.33,-0.69,0.02
2.0,120.56,36.38,37.5,120.56,36.38,37.5,-0.45,0.42,-0.08,0.79,3.0,357.56,64.12,-113.81,357.56,64.12,-113.81,0.64,0.32,-0.7,0.01
2.0,121.25,36.0,39.5,121.25,36.0,39.5,-0.44,0.43,-0.09,0.78,3.0,357.94,63.94,-114.25,357.94,63.94,-114.25,0.64,0.33,-0.7,0.01
2.0,121.62,37.25,41.38,121.62,37.25,41.38,-0.44,0.44,-0.09,0.78,3.0,358.0,63.81,-114.62,358.0,63.81,-114.62,0.64,0.33,-0.7,0.01
2.0,121.44,38.06,41.5,121.44,38.06,41.5,-0.44,0.45,-0.08,0.78,3.0,358.13,63.75,-114.87,358.13,63.75,-114.87,0.64,0.33,-0.7,0.01
2.0,121.31,38.13,41.19,121.31,38.13,41.19,-0.44,0.44,-0.08,0.78,3.0,358.19,63.69,-114.94,358.19,63.69,-114.94,0.64,0.33,-0.7,0.01
2.0,121.37,38.13,41.5,121.37,38.13,41.5,-0.44,0.45,-0.09,0.78,3.0,358.06,63.69,-114.94,358.06,63.69,-114.94,0.64,0.33,-0.7,0.01
2.0,121.56,38.31,41.31,121.56,38.31,41.31,-0.43,0.45,-0.08,0.78,3.0,358.19,63.56,-115.12,358.19,63.56,-115.12,0.64,0.33,-0.7,0.01
2.0,122.06,39.38,41.63,122.06,39.38,41.63,-0.43,0.45,-0.07,0.78,3.0,358.5,63.44,-115.44,358.5,63.44,-115.44,0.64,0.33,-0.7,0.01
3.0,122.69,40.94,39.75,122.69,40.94,39.75,-0.43,0.45,-0.06,0.78,3.0,358.63,63.5,-115.75,358.63,63.5,-115.75,0.63,0.32,-0.7,0.01
3.0,123.0,41.31,39.31,123.0,41.31,39.31,-0.42,0.46,-0.06,0.78,3.0,358.81,63.38,-116.06,358.81,63.38,-116.06,0.63,0.32,-0.7,0.0
3.0,123.44,41.38,40.13,123.44,41.38,40.13,-0.42,0.46,-0.06,0.78,3.0,0.0,62.81,-116.31,0.0,62.81,-116.31,0.63,0.32,-0.71,-0.0
3.0,123.37,41.69,39.81,123.37,41.69,39.81,-0.42,0.46,-0.06,0.78,3.0,1.5,62.25,-116.37,1.5,62.25,-116.37,0.63,0.32,-0.71,-0.01
3.0,123.56,43.0,37.75,123.56,43.0,37.75,-0.41,0.46,-0.03,0.79,3.0,1.81,62.06,-116.75,1.81,62.06,-116.75,0.63,0.32,-0.71,-0.01
3.0,126.69,45.75,33.25,126.69,45.75,33.25,-0.4,0.46,-0.01,0.8,3.0,1.31,62.19,-116.94,1.31,62.19,-116.94,0.63,0.32,-0.71,-0.01
3.0,128.69,46.88,30.06,128.69,46.88,30.06,-0.38,0.45,0.01,0.81,3.0,1.06,62.38,-118.06,1.06,62.38,-118.06,0.63,0.32,-0.71,-0.01
3.0,130.25,47.31,29.62,130.25,47.31,29.62,-0.37,0.45,0.0,0.81,3.0,6.19,59.63,-120.12,6.19,59.63,-120.12,0.61,0.32,-0.72,-0.03
3.0,130.63,47.88,22.62,130.63,47.88,22.62,-0.38,0.43,0.04,0.82,3.0,11.69,55.44,-117.69,11.69,55.44,-117.69,0.6,0.34,-0.72,-0.06
3.0,130.5,47.75,16.75,130.5,47.75,16.75,-0.38,0.42,0.07,0.82,3.0,8.5,55.25,-113.62,8.5,55.25,-113.62,0.62,0.37,-0.69,-0.05
3.0,131.5,47.31,11.56,131.5,47.31,11.56,-0.37,0.4,0.1,0.83,3.0,6.0,55.63,-112.62,6.0,55.63,-112.62,0.62,0.38,-0.68,-0.03
3.0,131.44,47.5,8.81,131.44,47.5,8.81,-0.38,0.39,0.11,0.83,3.0,7.75,53.88,-114.87,7.75,53.88,-114.87,0.6,0.39,-0.69,-0.05
3.0,131.13,47.69,6.81,131.13,47.69,6.81,-0.38,0.38,0.13,0.83,3.0,15.56,48.94,-116.5,15.56,48.94,-116.5,0.58,0.41,-0.69,-0.09
3.0,131.44,47.88,3.56,131.44,47.88,3.56,-0.38,0.38,0.15,0.83,3.0,17.0,46.31,-116.31,17.0,46.31,-116.31,0.59,0.43,-0.68,-0.07
3.0,131.38,48.19,1.06,131.38,48.19,1.06,-0.38,0.37,0.17,0.83,3.0,9.44,48.81,-116.25,9.44,48.81,-116.25,0.59,0.44,-0.67,-0.04
3.0,131.44,47.88,-1.81,131.44,47.88,-1.81,-0.38,0.36,0.18,0.83,3.0,8.69,48.5,-116.75,8.69,48.5,-116.75,0.59,0.45,-0.67,-0.05
3.0,131.63,46.94,-2.56,131.63,46.94,-2.56,-0.38,0.35,0.18,0.84,3.0,14.06,45.5,-118.06,14.06,45.5,-118.06,0.57,0.45,-0.68,-0.07
3.0,131.5,46.5,-3.44,131.5,46.5,-3.44,-0.38,0.35,0.18,0.84,3.0,18.44,43.5,-118.56,18.44,43.5,-118.56,0.56,0.45,-0.68,-0.09
3.0,131.38,46.19,-4.44,131.38,46.19,-4.44,-0.38,0.34,0.19,0.84,3.0,21.5,42.13,-118.25,21.5,42.13,-118.25,0.56,0.45,-0.69,-0.11
3.0,131.31,46.25,-5.56,131.31,46.25,-5.56,-0.38,0.34,0.2,0.84,3.0,24.75,40.25,-118.31,24.75,40.25,-118.31,0.55,0.46,-0.69,-0.12
3.0,130.75,47.25,-6.38,130.75,47.25,-6.38,-0.38,0.35,0.21,0.83,3.0,30.69,37.63,-117.19,30.69,37.63,-117.19,0.54,0.46,-0.69,-0.15
3.0,130.25,47.94,-5.69,130.25,47.94,-5.69,-0.38,0.35,0.2,0.83,3.0,39.0,34.25,-115.19,39.0,34.25,-115.19,0.54,0.45,-0.69,-0.19
3.0,130.06,48.13,-4.81,130.06,48.13,-4.81,-0.38,0.36,0.2,0.83,3.0,45.38,31.56,-113.69,45.38,31.56,-113.69,0.53,0.45,-0.68,-0.23
3.0,130.5,48.81,-3.38,130.5,48.81,-3.38,-0.38,0.37,0.19,0.83,3.0,50.31,29.87,-112.25,50.31,29.87,-112.25,0.52,0.44,-0.69,-0.25
3.0,130.69,49.69,-3.69,130.69,49.69,-3.69,-0.38,0.37,0.2,0.82,3.0,53.75,29.37,-111.06,53.75,29.37,-111.06,0.52,0.42,-0.69,-0.27
3.0,130.13,50.69,-4.38,130.13,50.69,-4.38,-0.38,0.38,0.2,0.82,3.0,60.38,26.62,-110.0,60.38,26.62,-110.0,0.51,0.42,-0.69,-0.3
3.0,129.81,51.25,-4.19,129.81,51.25,-4.19,-0.38,0.38,0.21,0.81,3.0,62.75,25.44,-108.69,62.75,25.44,-108.69,0.51,0.43,-0.67,-0.32
3.0,129.38,52.13,-3.13,129.38,52.13,-3.13,-0.38,0.39,0.2,0.81,3.0,63.69,23.19,-105.75,63.69,23.19,-105.75,0.53,0.45,-0.65,-0.32
3.0,128.94,53.13,-2.38,128.94,53.13,-2.38,-0.39,0.4,0.21,0.81,3.0,60.81,24.0,-105.12,60.81,24.0,-105.12,0.53,0.45,-0.65,-0.31
3.0,128.56,53.75,-2.31,128.56,53.75,-2.31,-0.39,0.4,0.21,0.8,3.0,61.44,24.31,-107.0,61.44,24.31,-107.0,0.52,0.44,-0.66,-0.31
3.0,128.0,53.94,-3.5,128.0,53.94,-3.5,-0.39,0.4,0.22,0.8,3.0,62.25,25.5,-106.94,62.25,25.5,-106.94,0.52,0.43,-0.67,-0.31
3.0,127.75,53.63,-4.19,127.75,53.63,-4.19,-0.39,0.39,0.22,0.8,3.0,60.38,27.69,-106.37,60.38,27.69,-106.37,0.53,0.41,-0.68,-0.31
3.0,127.44,53.31,-5.0,127.44,53.31,-5.0,-0.4,0.39,0.23,0.8,3.0,60.31,29.31,-104.69,60.31,29.31,-104.69,0.54,0.39,-0.68,-0.31
3.0,127.31,53.0,-5.44,127.31,53.0,-5.44,-0.4,0.39,0.23,0.8,3.0,55.63,33.81,-100.12,55.63,33.81,-100.12,0.58,0.35,-0.67,-0.3
3.0,127.19,53.0,-5.13,127.19,53.0,-5.13,-0.4,0.39,0.23,0.8,3.0,49.19,37.69,-96.5,49.19,37.69,-96.5,0.63,0.33,-0.65,-0.26
3.0,127.06,53.13,-4.5,127.06,53.13,-4.5,-0.4,0.39,0.22,0.8,3.0,41.31,41.44,-92.69,41.31,41.44,-92.69,0.65,0.35,-0.63,-0.24
3.0,127.06,53.56,-3.63,127.06,53.56,-3.63,-0.4,0.39,0.22,0.8,3.0,39.63,42.0,-91.37,39.63,42.0,-91.37,0.66,0.33,-0.63,-0.25
3.0,126.94,54.0,-3.25,126.94,54.0,-3.25,-0.4,0.4,0.22,0.8,3.0,47.31,39.81,-90.56,47.31,39.81,-90.56,0.63,0.31,-0.64,-0.29
3.0,126.5,54.19,-3.63,126.5,54.19,-3.63,-0.4,0.4,0.22,0.79,3.0,53.19,38.25,-91.94,53.19,38.25,-91.94,0.63,0.29,-0.65,-0.32
3.0,126.06,54.0,-4.06,126.06,54.0,-4.06,-0.4,0.39,0.23,0.79,3.0,54.06,40.19,-88.12,54.06,40.19,-88.12,0.64,0.26,-0.64,-0.33
3.0,126.06,53.63,-4.13,126.06,53.63,-4.13,-0.4,0.39,0.23,0.8,3.0,56.81,39.5,-88.31,56.81,39.5,-88.31,0.63,0.26,-0.65,-0.34
3.0,126.12,53.44,-3.56,126.12,53.44,-3.56,-0.4,0.39,0.22,0.8,3.0,57.44,38.88,-93.56,57.44,38.88,-93.56,0.6,0.27,-0.67,-0.33
3.0,126.31,53.19,-2.38,126.31,53.19,-2.38,-0.4,0.39,0.21,0.8,3.0,54.19,38.31,-99.12,54.19,38.31,-99.12,0.59,0.31,-0.68,-0.3
3.0,126.25,52.94,-1.19,126.25,52.94,-1.19,-0.4,0.39,0.21,0.8,3.0,50.56,41.06,-99.62,50.56,41.06,-99.62,0.59,0.29,-0.69,-0.3
3.0,126.12,52.5,-0.25,126.12,52.5,-0.25,-0.41,0.39,0.2,0.8,3.0,64.06,37.88,-97.75,64.06,37.88,-97.75,0.54,0.24,-0.71,-0.38
3.0,125.94,52.19,0.06,125.94,52.19,0.06,-0.41,0.39,0.2,0.8,3.0,80.5,32.81,-100.87,80.5,32.81,-100.87,0.48,0.2,-0.74,-0.42
3.0,125.81,51.81,0.44,125.81,51.81,0.44,-0.41,0.39,0.19,0.8,3.0,85.44,32.31,-106.06,85.44,32.31,-106.06,0.43,0.19,-0.78,-0.42
3.0,125.69,51.19,1.63,125.69,51.19,1.63,-0.41,0.39,0.19,0.8,3.0,95.31,26.87,-113.0,95.31,26.87,-113.0,0.36,0.2,-0.81,-0.42
3.0,125.56,50.5,2.31,125.56,50.5,2.31,-0.41,0.38,0.18,0.8,3.0,98.56,24.19,-116.12,98.56,24.19,-116.12,0.36,0.21,-0.81,-0.41
3.0,125.25,49.88,1.75,125.25,49.88,1.75,-0.42,0.38,0.18,0.81,3.0,92.69,25.87,-115.37,92.69,25.87,-115.37,0.38,0.23,-0.81,-0.39
3.0,125.25,49.13,1.37,125.25,49.13,1.37,-0.42,0.37,0.18,0.81,3.0,89.69,25.19,-121.75,89.69,25.19,-121.75,0.34,0.25,-0.84,-0.35
3.0,125.44,48.44,1.56,125.44,48.44,1.56,-0.42,0.37,0.18,0.81,3.0,98.56,19.06,-128.06,98.56,19.06,-128.06,0.28,0.26,-0.85,-0.35
3.0,125.62,47.88,2.06,125.62,47.88,2.06,-0.42,0.37,0.17,0.81,3.0,114.75,11.81,-129.19,114.75,11.81,-129.19,0.24,0.27,-0.86,-0.37
3.0,125.69,47.63,2.25,125.69,47.63,2.25,-0.42,0.37,0.17,0.81,3.0,117.94,10.0,-131.88,117.94,10.0,-131.88,0.21,0.28,-0.87,-0.35
3.0,125.56,47.81,2.06,125.56,47.81,2.06,-0.42,0.37,0.17,0.81,3.0,322.44,7.88,-136.44,322.44,7.88,-136.44,0.19,0.3,-0.88,-0.32
3.0,125.44,48.25,2.38,125.44,48.25,2.38,-0.42,0.37,0.17,0.81,3.0,319.06,2.88,-139.13,319.06,2.88,-139.13,0.13,0.34,-0.88,-0.31
3.0,125.69,48.25,2.88,125.69,48.25,2.88,-0.42,0.37,0.17,0.81,3.0,315.25,-3.0,-144.13,315.25,-3.0,-144.13,0.08,0.37,-0.88,-0.28
3.0,125.87,47.63,2.56,125.87,47.63,2.56,-0.42,0.36,0.17,0.82,3.0,313.75,-5.44,-147.69,313.75,-5.44,-147.69,0.06,0.39,-0.88,-0.27
3.0,125.94,46.69,1.37,125.94,46.69,1.37,-0.42,0.35,0.17,0.82,3.0,310.63,-7.56,-149.19,310.63,-7.56,-149.19,0.05,0.41,-0.88,-0.26
3.0,126.19,45.56,0.0,126.19,45.56,0.0,-0.42,0.34,0.18,0.82,3.0,310.31,-4.38,-153.38,310.31,-4.38,-153.38,0.06,0.4,-0.89,-0.21
3.0,126.44,44.56,-1.06,126.44,44.56,-1.06,-0.42,0.33,0.18,0.83,3.0,311.13,-5.13,-155.81,311.13,-5.13,-155.81,0.03,0.41,-0.88,-0.22
3.0,126.62,43.69,-1.81,126.62,43.69,-1.81,-0.42,0.32,0.18,0.83,3.0,308.25,-11.31,-155.94,308.25,-11.31,-155.94,-0.0,0.43,-0.87,-0.23
3.0,127.06,42.69,-2.81,127.06,42.69,-2.81,-0.41,0.31,0.18,0.83,3.0,308.5,-9.56,-156.38,308.5,-9.56,-156.38,0.02,0.42,-0.88,-0.21
3.0,127.37,41.44,-4.31,127.37,41.44,-4.31,-0.41,0.3,0.18,0.84,3.0,309.19,-8.88,-157.31,309.19,-8.88,-157.31,0.0,0.42,-0.88,-0.22
3.0,127.75,40.0,-5.13,127.75,40.0,-5.13,-0.41,0.29,0.18,0.84,3.0,307.25,-13.56,-156.13,307.25,-13.56,-156.13,-0.03,0.43,-0.87,-0.24
3.0,128.13,38.81,-5.69,128.13,38.81,-5.69,-0.41,0.28,0.18,0.85,3.0,306.44,-15.44,-155.88,306.44,-15.44,-155.88,-0.03,0.44,-0.87,-0.24
3.0,128.5,37.63,-6.13,128.5,37.63,-6.13,-0.41,0.27,0.18,0.85,3.0,306.63,-14.88,-156.94,306.63,-14.88,-156.94,-0.03,0.44,-0.87,-0.23
3.0,128.81,36.44,-6.94,128.81,36.44,-6.94,-0.41,0.26,0.18,0.86,3.0,305.44,-16.94,-158.63,305.44,-16.94,-158.63,-0.06,0.45,-0.86,-0.23
3.0,129.13,35.25,-8.19,129.13,35.25,-8.19,-0.41,0.24,0.19,0.86,3.0,304.69,-19.62,-159.56,304.69,-19.62,-159.56,-0.08,0.45,-0.86,-0.23
3.0,129.69,34.06,-9.63,129.69,34.06,-9.63,-0.4,0.23,0.19,0.86,3.0,304.13,-22.44,-159.63,304.13,-22.44,-159.63,-0.11,0.45,-0.85,-0.24
3.0,130.31,33.19,-10.94,130.31,33.19,-10.94,-0.4,0.22,0.2,0.87,3.0,302.94,-25.19,-159.69,302.94,-25.19,-159.69,-0.12,0.46,-0.85,-0.25
3.0,130.81,32.63,-11.69,130.81,32.63,-11.69,-0.4,0.22,0.2,0.87,3.0,303.94,-25.69,-160.31,303.94,-25.69,-160.31,-0.13,0.45,-0.85,-0.24
3.0,131.19,32.44,-12.69,131.19,32.44,-12.69,-0.39,0.21,0.21,0.87,3.0,302.81,-28.44,-162.19,302.81,-28.44,-162.19,-0.16,0.46,-0.84,-0.24
3.0,131.25,32.5,-13.94,131.25,32.5,-13.94,-0.39,0.21,0.22,0.87,3.0,303.31,-28.75,-164.13,303.31,-28.75,-164.13,-0.16,0.45,-0.85,-0.22
3.0,131.38,33.06,-14.44,131.38,33.06,-14.44,-0.39,0.22,0.22,0.87,3.0,303.81,-29.37,-165.0,303.81,-29.37,-165.0,-0.17,0.45,-0.85,-0.23
3.0,131.38,34.31,-13.81,131.38,34.31,-13.81,-0.39,0.23,0.22,0.86,3.0,303.63,-31.69,-164.25,303.63,-31.69,-164.25,-0.19,0.45,-0.84,-0.24
3.0,131.13,36.19,-11.75,131.13,36.19,-11.75,-0.39,0.26,0.2,0.86,3.0,302.75,-33.0,-163.88,302.75,-33.0,-163.88,-0.19,0.45,-0.84,-0.24
3.0,130.44,38.31,-8.63,130.44,38.31,-8.63,-0.4,0.28,0.19,0.85,3.0,303.25,-31.37,-163.13,303.25,-31.37,-163.13,-0.18,0.46,-0.83,-0.25
3.0,129.56,39.81,-5.63,129.56,39.81,-5.63,-0.4,0.3,0.18,0.85,3.0,297.94,-32.81,-162.63,297.94,-32.81,-162.63,-0.17,0.5,-0.8,-0.27
3.0,129.0,40.63,-3.75,129.0,40.63,-3.75,-0.4,0.3,0.17,0.85,3.0,296.31,-27.19,-157.88,296.31,-27.19,-157.88,-0.08,0.49,-0.83,-0.27
3.0,128.75,40.94,-3.75,128.75,40.94,-3.75,-0.41,0.3,0.18,0.84,3.0,302.88,-17.69,-156.06,302.88,-17.69,-156.06,-0.05,0.46,-0.85,-0.26
3.0,128.63,40.94,-4.19,128.63,40.94,-4.19,-0.41,0.3,0.18,0.84,3.0,299.69,-26.31,-152.94,299.69,-26.31,-152.94,-0.12,0.48,-0.81,-0.32
3.0,128.63,40.81,-4.5,128.63,40.81,-4.5,-0.41,0.3,0.18,0.84,3.0,297.06,-34.69,-149.5,297.06,-34.69,-149.5,-0.15,0.48,-0.79,-0.35
3.0,128.38,41.0,-5.25,128.38,41.0,-5.25,-0.41,0.3,0.19,0.84,3.0,299.56,-34.31,-149.5,299.56,-34.31,-149.5,-0.15,0.46,-0.8,-0.35
3.0,128.13,41.44,-6.06,128.13,41.44,-6.06,-0.41,0.3,0.19,0.84,3.0,228.5,-35.31,-149.13,228.5,-35.31,-149.13,-0.17,0.46,-0.8,-0.36
3.0,128.06,42.06,-6.31,128.06,42.06,-6.31,-0.41,0.31,0.2,0.84,3.0,235.19,-39.56,-148.94,235.19,-39.56,-148.94,-0.2,0.46,-0.78,-0.37
3.0,128.0,42.81,-6.56,128.0,42.81,-6.56,-0.41,0.31,0.2,0.84,3.0,239.38,-42.13,-148.81,239.38,-42.13,-148.81,-0.21,0.45,-0.78,-0.37
3.0,127.94,43.06,-6.63,127.94,43.06,-6.63,-0.41,0.31,0.2,0.83,3.0,243.13,-44.63,-147.25,243.13,-44.63,-147.25,-0.25,0.44,-0.77,-0.39
3.0,128.0,43.06,-6.44,128.0,43.06,-6.44,-0.41,0.31,0.2,0.84,3.0,250.56,-51.0,-146.88,250.56,-51.0,-146.88,-0.29,0.45,-0.75,-0.4
3.0,128.13,43.06,-6.19,128.13,43.06,-6.19,-0.41,0.31,0.2,0.84,3.0,251.94,-52.44,-145.63,251.94,-52.44,-145.63,-0.3,0.44,-0.74,-0.41
3.0,128.13,43.19,-6.38,128.13,43.19,-6.38,-0.41,0.31,0.2,0.84,3.0,252.94,-54.06,-143.63,252.94,-54.06,-143.63,-0.31,0.43,-0.74,-0.41
3.0,128.19,43.06,-6.63,128.19,43.06,-6.63,-0.41,0.31,0.2,0.84,3.0,255.88,-56.25,-142.38,255.88,-56.25,-142.38,-0.33,0.42,-0.73,-0.42
3.0,128.31,43.31,-6.69,128.31,43.31,-6.69,-0.4,0.31,0.2,0.83,3.0,259.5,-58.5,-141.25,259.5,-58.5,-141.25,-0.35,0.41,-0.73,-0.42
3.0,128.38,43.69,-6.63,128.38,43.69,-6.63,-0.4,0.32,0.2,0.83,3.0,262.38,-60.38,-140.19,262.38,-60.38,-140.19,-0.37,0.4,-0.73,-0.42
3.0,128.5,43.56,-6.63,128.5,43.56,-6.63,-0.4,0.32,0.2,0.84,3.0,265.06,-62.19,-139.75,265.06,-62.19,-139.75,-0.39,0.39,-0.72,-0.42
3.0,128.63,43.69,-6.56,128.63,43.69,-6.56,-0.4,0.32,0.2,0.84,3.0,267.63,-64.06,-139.69,267.63,-64.06,-139.69,-0.4,0.39,-0.71,-0.42
3.0,128.75,43.75,-6.5,128.75,43.75,-6.5,-0.4,0.32,0.2,0.84,3.0,269.25,-65.5,-139.06,269.25,-65.5,-139.06,-0.41,0.39,-0.71,-0.42
3.0,128.81,43.69,-6.56,128.81,43.69,-6.56,-0.4,0.32,0.2,0.84,3.0,270.44,-66.37,-137.94,270.44,-66.37,-137.94,-0.42,0.38,-0.71,-0.42
3.0,128.75,43.88,-6.5,128.75,43.88,-6.5,-0.4,0.32,0.2,0.83,3.0,271.94,-67.44,-137.0,271.94,-67.44,-137.0,-0.43,0.38,-0.71,-0.42
3.0,128.81,44.31,-6.56,128.81,44.31,-6.56,-0.4,0.32,0.2,0.83,3.0,273.38,-68.37,-136.69,273.38,-68.37,-136.69,-0.44,0.38,-0.7,-0.41
3.0,128.94,44.63,-6.44,128.94,44.63,-6.44,-0.4,0.33,0.2,0.83,3.0,274.81,-69.0,-136.81,274.81,-69.0,-136.81,-0.45,0.37,-0.7,-0.41
3.0,128.94,44.88,-6.44,128.94,44.88,-6.44,-0.4,0.33,0.2,0.83,3.0,275.5,-69.06,-137.31,275.5,-69.06,-137.31,-0.45,0.37,-0.7,-0.41
3.0,129.13,45.19,-6.38,129.13,45.19,-6.38,-0.4,0.33,0.2,0.83,3.0,275.38,-68.87,-137.81,275.38,-68.87,-137.81,-0.45,0.37,-0.7,-0.41
3.0,129.06,45.5,-6.13,129.06,45.5,-6.13,-0.4,0.33,0.2,0.83,3.0,275.31,-68.69,-138.38,275.31,-68.69,-138.38,-0.45,0.37,-0.7,-0.41
3.0,129.13,45.81,-5.94,129.13,45.81,-5.94,-0.4,0.34,0.2,0.83,3.0,275.31,-68.81,-138.38,275.31,-68.81,-138.38,-0.45,0.37,-0.7,-0.41
3.0,129.13,46.06,-5.88,129.13,46.06,-5.88,-0.39,0.34,0.2,0.83,3.0,275.44,-69.12,-138.06,275.44,-69.12,-138.06,-0.45,0.37,-0.7,-0.41
3.0,129.13,46.31,-5.88,129.13,46.31,-5.88,-0.39,0.34,0.2,0.83,3.0,276.13,-69.44,-138.13,276.13,-69.44,-138.13,-0.45,0.37,-0.7,-0.41
3.0,129.19,46.5,-5.81,129.19,46.5,-5.81,-0.39,0.34,0.2,0.83,3.0,276.75,-70.0,-138.31,276.75,-70.0,-138.31,-0.46,0.37,-0.7,-0.41
3.0,129.19,46.63,-5.69,129.19,46.63,-5.69,-0.39,0.34,0.2,0.83,3.0,277.31,-70.62,-138.56,277.31,-70.62,-138.56,-0.46,0.37,-0.7,-0.4
3.0,129.31,46.75,-5.63,129.31,46.75,-5.63,-0.39,0.34,0.2,0.83,3.0,277.63,-70.81,-139.44,277.63,-70.81,-139.44,-0.46,0.38,-0.7,-0.4
3.0,129.44,46.81,-5.63,129.44,46.81,-5.63,-0.39,0.34,0.2,0.83,3.0,277.69,-70.62,-140.38,277.69,-70.62,-140.38,-0.46,0.38,-0.7,-0.4
3.0,129.44,46.88,-5.63,129.44,46.88,-5.63,-0.39,0.34,0.2,0.83,3.0,277.19,-70.31,-141.0,277.19,-70.31,-141.0,-0.46,0.38,-0.7,-0.4
3.0,129.5,46.88,-5.75,129.5,46.88,-5.75,-0.39,0.34,0.2,0.83,3.0,276.5,-70.0,-141.25,276.5,-70.0,-141.25,-0.45,0.39,-0.7,-0.4
3.0,129.5,46.88,-5.94,129.5,46.88,-5.94,-0.39,0.34,0.2,0.83,3.0,275.94,-69.81,-141.56,275.94,-69.81,-141.56,-0.45,0.39,-0.7,-0.4
3.0,129.63,46.88,-5.94,129.63,46.88,-5.94,-0.39,0.34,0.2,0.83,3.0,275.19,-69.56,-141.69,275.19,-69.56,-141.69,-0.45,0.39,-0.7,-0.41
3.0,129.75,46.88,-6.0,129.75,46.88,-6.0,-0.39,0.34,0.2,0.83,3.0,274.75,-69.56,-141.63,274.75,-69.56,-141.63,-0.44,0.39,-0.69,-0.41
3.0,129.75,46.88,-6.0,129.75,46.88,-6.0,-0.39,0.34,0.2,0.83,3.0,274.31,-69.25,-142.19,274.31,-69.25,-142.19,-0.44,0.4,-0.69,-0.41
3.0,130.06,46.88,-6.0,130.06,46.88,-6.0,-0.39,0.34,0.2,0.83,3.0,273.88,-68.75,-143.19,273.88,-68.75,-143.19,-0.44,0.4,-0.7,-0.41
3.0,130.13,46.81,-6.0,130.13,46.81,-6.0,-0.39,0.34,0.2,0.83,3.0,273.44,-68.75,-143.25,273.44,-68.75,-143.25,-0.43,0.41,-0.69,-0.41
3.0,130.25,46.69,-6.0,130.25,46.69,-6.0,-0.39,0.34,0.2,0.83,3.0,272.88,-68.81,-143.31,272.88,-68.81,-143.31,-0.43,0.41,-0.69,-0.41
3.0,130.38,46.63,-6.0,130.38,46.63,-6.0,-0.38,0.34,0.2,0.83,3.0,272.63,-68.94,-143.44,272.63,-68.94,-143.44,-0.43,0.41,-0.69,-0.41
3.0,130.38,46.63,-6.0,130.38,46.63,-6.0,-0.38,0.34,0.2,0.83,3.0,272.44,-68.87,-143.63,272.44,-68.87,-143.63,-0.43,0.41,-0.69,-0.41
3.0,130.63,46.63,-6.0,130.63,46.63,-6.0,-0.38,0.34,0.2,0.83,3.0,272.31,-68.81,-144.25,272.31,-68.81,-144.25,-0.43,0.42,-0.69,-0.41
3.0,130.69,46.63,-5.94,130.69,46.63,-5.94,-0.38,0.34,0.2,0.83,3.0,272.44,-68.81,-144.69,272.44,-68.81,-144.69,-0.43,0.42,-0.69,-0.41
3.0,130.69,46.69,-5.88,130.69,46.69,-5.88,-0.38,0.34,0.2,0.83,3.0,272.69,-68.69,-145.63,272.69,-68.69,-145.63,-0.43,0.42,-0.69,-0.41
3.0,130.75,46.69,-5.94,130.75,46.69,-5.94,-0.38,0.34,0.2,0.83,3.0,272.88,-68.44,-146.63,272.88,-68.44,-146.63,-0.43,0.42,-0.69,-0.41
3.0,130.75,46.63,-5.94,130.75,46.63,-5.94,-0.38,0.34,0.2,0.83,3.0,273.13,-68.56,-146.94,273.13,-68.56,-146.94,-0.43,0.42,-0.69,-0.4
3.0,130.81,46.56,-6.0,130.81,46.56,-6.0,-0.38,0.34,0.2,0.83,3.0,273.5,-68.81,-147.0,273.5,-68.81,-147.0,-0.43,0.42,-0.69,-0.4
3.0,130.81,46.56,-6.0,130.81,46.56,-6.0,-0.38,0.34,0.2,0.83,3.0,273.75,-68.94,-147.25,273.75,-68.94,-147.25,-0.43,0.42,-0.69,-0.4
3.0,130.88,46.5,-6.0,130.88,46.5,-6.0,-0.38,0.34,0.2,0.83,3.0,273.88,-68.87,-147.69,273.88,-68.87,-147.69,-0.43,0.42,-0.69,-0.4
3.0,130.94,46.56,-6.0,130.94,46.56,-6.0,-0.38,0.34,0.2,0.83,3.0,273.75,-68.69,-148.0,273.75,-68.69,-148.0,-0.43,0.42,-0.69,-0.4
3.0,130.94,46.5,-6.06,130.94,46.5,-6.06,-0.38,0.34,0.2,0.83,3.0,273.75,-68.69,-148.19,273.75,-68.69,-148.19,-0.43,0.42,-0.69,-0.4
3.0,131.0,46.56,-5.94,131.0,46.56,-5.94,-0.38,0.34,0.2,0.83,3.0,273.63,-68.69,-148.31,273.63,-68.69,-148.31,-0.43,0.42,-0.69,-0.4
3.0,131.0,46.56,-5.94,131.0,46.56,-5.94,-0.38,0.34,0.2,0.83,3.0,273.38,-68.69,-148.25,273.38,-68.69,-148.25,-0.43,0.43,-0.69,-0.4
3.0,131.0,46.56,-5.94,131.0,46.56,-5.94,-0.38,0.34,0.2,0.83,3.0,273.0,-68.62,-148.25,273.0,-68.62,-148.25,-0.43,0.43,-0.69,-0.4
3.0,130.94,46.56,-5.88,130.94,46.56,-5.88,-0.38,0.34,0.2,0.83,3.0,272.25,-68.37,-148.56,272.25,-68.37,-148.56,-0.42,0.43,-0.69,-0.41
3.0,130.88,46.56,-5.94,130.88,46.56,-5.94,-0.38,0.34,0.2,0.83,3.0,271.25,-67.87,-149.19,271.25,-67.87,-149.19,-0.41,0.44,-0.68,-0.41
3.0,130.88,46.5,-6.0,130.88,46.5,-6.0,-0.38,0.34,0.2,0.83,3.0,270.44,-67.37,-149.94,270.44,-67.37,-149.94,-0.41,0.45,-0.68,-0.41
3.0,130.88,46.5,-6.0,130.88,46.5,-6.0,-0.38,0.34,0.2,0.83,3.0,269.88,-66.94,-150.5,269.88,-66.94,-150.5,-0.4,0.45,-0.69,-0.41
3.0,130.88,46.56,-6.0,130.88,46.56,-6.0,-0.38,0.34,0.2,0.83,3.0,269.69,-66.69,-150.75,269.69,-66.69,-150.75,-0.4,0.45,-0.69,-0.41
3.0,130.94,46.56,-6.0,130.94,46.56,-6.0,-0.38,0.34,0.2,0.83,3.0,269.75,-66.75,-150.88,269.75,-66.75,-150.88,-0.4,0.45,-0.69,-0.41
3.0,130.94,46.56,-5.94,130.94,46.56,-5.94,-0.38,0.34,0.2,0.83,3.0,269.94,-66.87,-150.81,269.94,-66.87,-150.81,-0.41,0.45,-0.68,-0.41
3.0,131.0,46.56,-5.88,131.0,46.56,-5.88,-0.38,0.34,0.2,0.83,3.0,270.13,-67.06,-150.81,270.13,-67.06,-150.81,-0.41,0.45,-0.68,-0.41
3.0,131.0,46.5,-5.88,131.0,46.5,-5.88,-0.38,0.34,0.2,0.84,3.0,270.38,-67.31,-150.63,270.38,-67.31,-150.63,-0.41,0.45,-0.68,-0.41
3.0,131.06,46.5,-5.88,131.06,46.5,-5.88,-0.38,0.34,0.2,0.84,3.0,270.63,-67.5,-150.44,270.63,-67.5,-150.44,-0.41,0.45,-0.68,-0.41
3.0,131.06,46.5,-5.94,131.06,46.5,-5.94,-0.38,0.34,0.2,0.84,3.0,270.75,-67.62,-150.38,270.75,-67.62,-150.38,-0.41,0.45,-0.68,-0.41
3.0,131.13,46.44,-5.94,131.13,46.44,-5.94,-0.38,0.34,0.2,0.84,3.0,270.88,-67.69,-150.38,270.88,-67.69,-150.38,-0.41,0.45,-0.68,-0.41
3.0,131.13,46.44,-5.88,131.13,46.44,-5.88,-0.38,0.34,0.2,0.84,3.0,270.88,-67.69,-150.5,270.88,-67.69,-150.5,-0.41,0.45,-0.68,-0.41
3.0,131.13,46.44,-5.88,131.13,46.44,-5.88,-0.38,0.34,0.2,0.84,3.0,270.69,-67.5,-150.69,270.69,-67.5,-150.69,-0.41,0.45,-0.68,-0.41
3.0,131.06,46.44,-5.81,131.06,46.44,-5.81,-0.38,0.34,0.2,0.84,3.0,270.13,-67.19,-150.94,270.13,-67.19,-150.94,-0.41,0.45,-0.68,-0.41
3.0,131.0,46.38,-5.69,131.0,46.38,-5.69,-0.38,0.34,0.2,0.84,3.0,269.5,-66.87,-151.06,269.5,-66.87,-151.06,-0.4,0.45,-0.68,-0.41
3.0,130.94,46.38,-5.63,130.94,46.38,-5.63,-0.38,0.34,0.2,0.84,3.0,269.0,-66.81,-151.13,269.0,-66.81,-151.13,-0.4,0.46,-0.68,-0.41
3.0,130.94,46.38,-5.56,130.94,46.38,-5.56,-0.38,0.34,0.2,0.84,3.0,268.81,-66.75,-151.19,268.81,-66.75,-151.19,-0.4,0.46,-0.68,-0.41
3.0,130.94,46.44,-5.5,130.94,46.44,-5.5,-0.38,0.34,0.2,0.84,3.0,268.88,-66.75,-151.25,268.88,-66.75,-151.25,-0.4,0.46,-0.68,-0.41
3.0,130.94,46.44,-5.38,130.94,46.44,-5.38,-0.38,0.34,0.2,0.84,3.0,269.19,-66.81,-151.25,269.19,-66.81,-151.25,-0.4,0.46,-0.68,-0.41
3.0,131.0,46.44,-5.38,131.0,46.44,-5.38,-0.38,0.34,0.2,0.84,3.0,269.5,-66.94,-151.13,269.5,-66.94,-151.13,-0.4,0.45,-0.68,-0.41
3.0,131.0,46.44,-5.38,131.0,46.44,-5.38,-0.38,0.34,0.2,0.84,3.0,269.69,-67.06,-151.06,269.69,-67.06,-151.06,-0.41,0.45,-0.68,-0.41
3.0,131.0,46.44,-5.38,131.0,46.44,-5.38,-0.38,0.34,0.2,0.84,3.0,269.81,-67.12,-151.0,269.81,-67.12,-151.0,-0.41,0.45,-0.68,-0.41
3.0,131.0,46.44,-5.31,131.0,46.44,-5.31,-0.38,0.34,0.2,0.84,3.0,269.88,-67.19,-151.0,269.88,-67.19,-151.0,-0.41,0.45,-0.68,-0.41
3.0,131.0,46.44,-5.25,131.0,46.44,-5.25,-0.38,0.34,0.2,0.84,3.0,269.88,-67.19,-150.94,269.88,-67.19,-150.94,-0.41,0.45,-0.68,-0.41
3.0,131.0,46.44,-5.25,131.0,46.44,-5.25,-0.38,0.34,0.2,0.84,3.0,269.88,-67.25,-150.75,269.88,-67.25,-150.75,-0.41,0.45,-0.68,-0.41
3.0,131.0,46.38,-5.31,131.0,46.38,-5.31,-0.38,0.34,0.2,0.84,3.0,270.0,-67.44,-150.56,270.0,-67.44,-150.56,-0.41,0.45,-0.68,-0.41
3.0,131.06,46.38,-5.31,131.06,46.38,-5.31,-0.38,0.34,0.2,0.84,3.0,270.19,-67.62,-150.31,270.19,-67.62,-150.31,-0.41,0.45,-0.68,-0.41
3.0,131.06,46.31,-5.31,131.06,46.31,-5.31,-0.38,0.34,0.2,0.84,3.0,270.44,-67.81,-150.06,270.44,-67.81,-150.06,-0.41,0.45,-0.68,-0.41
3.0,131.13,46.38,-5.38,131.13,46.38,-5.38,-0.38,0.34,0.2,0.84,3.0,270.44,-67.75,-150.0,270.44,-67.75,-150.0,-0.41,0.45,-0.68,-0.41
3.0,131.13,46.38,-5.5,131.13,46.38,-5.5,-0.38,0.34,0.2,0.84,3.0,270.31,-67.56,-150.06,270.31,-67.56,-150.06,-0.41,0.45,-0.68,-0.41
3.0,131.19,46.44,-5.44,131.19,46.44,-5.44,-0.38,0.34,0.2,0.84,3.0,270.19,-67.31,-150.31,270.19,-67.31,-150.31,-0.41,0.45,-0.68,-0.41
3.0,131.19,46.44,-5.44,131.19,46.44,-5.44,-0.38,0.35,0.2,0.84,3.0,270.13,-67.12,-150.44,270.13,-67.12,-150.44,-0.41,0.45,-0.68,-0.41
3.0,131.19,46.44,-5.44,131.19,46.44,-5.44,-0.38,0.34,0.2,0.84,3.0,270.19,-67.0,-150.5,270.19,-67.0,-150.5,-0.41,0.45,-0.69,-0.41
3.0,131.19,46.44,-5.44,131.19,46.44,-5.44,-0.38,0.34,0.2,0.84,3.0,270.31,-67.06,-150.44,270.31,-67.06,-150.44,-0.41,0.45,-0.69,-0.41
3.0,131.19,46.44,-5.5,131.19,46.44,-5.5,-0.38,0.34,0.2,0.84,3.0,270.75,-67.37,-150.13,270.75,-67.37,-150.13,-0.41,0.44,-0.69,-0.41
3.0,131.19,46.44,-5.5,131.19,46.44,-5.5,-0.38,0.34,0.2,0.84,3.0,271.25,-67.69,-149.75,271.25,-67.69,-149.75,-0.42,0.44,-0.69,-0.41
3.0,131.19,46.5,-5.5,131.19,46.5,-5.5,-0.38,0.35,0.2,0.84,3.0,271.75,-67.87,-149.56,271.75,-67.87,-149.56,-0.42,0.44,-0.69,-0.4
3.0,131.25,46.5,-5.5,131.25,46.5,-5.5,-0.38,0.35,0.2,0.84,3.0,272.06,-67.75,-149.56,272.06,-67.75,-149.56,-0.42,0.43,-0.69,-0.4
3.0,131.25,46.5,-5.63,131.25,46.5,-5.63,-0.38,0.34,0.2,0.84,3.0,271.88,-66.94,-150.06,271.88,-66.94,-150.06,-0.41,0.43,-0.69,-0.4
3.0,131.31,46.44,-5.75,131.31,46.44,-5.75,-0.38,0.34,0.2,0.84,3.0,271.38,-65.87,-150.69,271.38,-65.87,-150.69,-0.41,0.44,-0.7,-0.4
3.0,131.44,46.5,-5.75,131.44,46.5,-5.75,-0.38,0.35,0.2,0.84,3.0,271.0,-64.94,-151.25,271.0,-64.94,-151.25,-0.4,0.44,-0.7,-0.39
3.0,131.44,46.5,-5.75,131.44,46.5,-5.75,-0.38,0.34,0.2,0.84,3.0,270.63,-64.31,-151.56,270.63,-64.31,-151.56,-0.4,0.44,-0.71,-0.39
3.0,131.5,46.5,-5.88,131.5,46.5,-5.88,-0.38,0.34,0.2,0.84,3.0,270.44,-63.94,-151.5,270.44,-63.94,-151.5,-0.39,0.44,-0.71,-0.39
3.0,131.56,46.5,-5.94,131.56,46.5,-5.94,-0.38,0.34,0.2,0.84,3.0,270.44,-63.69,-151.31,270.44,-63.69,-151.31,-0.39,0.43,-0.71,-0.39
3.0,131.63,46.44,-5.88,131.63,46.44,-5.88,-0.38,0.34,0.2,0.84,3.0,270.44,-63.5,-151.31,270.44,-63.5,-151.31,-0.39,0.43,-0.71,-0.39
3.0,131.63,46.44,-5.81,131.63,46.44,-5.81,-0.38,0.34,0.2,0.84,3.0,270.81,-63.13,-151.44,270.81,-63.13,-151.44,-0.39,0.43,-0.72,-0.39
3.0,131.63,46.44,-5.69,131.63,46.44,-5.69,-0.38,0.34,0.2,0.84,3.0,270.63,-62.44,-151.69,270.63,-62.44,-151.69,-0.39,0.43,-0.72,-0.38
3.0,131.56,46.38,-5.5,131.56,46.38,-5.5,-0.38,0.34,0.19,0.84,3.0,270.38,-61.81,-151.94,270.38,-61.81,-151.94,-0.38,0.43,-0.73,-0.38
3.0,131.56,46.31,-5.38,131.56,46.31,-5.38,-0.38,0.34,0.19,0.84,3.0,270.19,-60.75,-152.56,270.19,-60.75,-152.56,-0.38,0.43,-0.73,-0.38
3.0,131.63,46.31,-5.31,131.63,46.31,-5.31,-0.38,0.35,0.19,0.84,3.0,270.5,-60.5,-152.81,270.5,-60.5,-152.81,-0.38,0.43,-0.73,-0.37
3.0,131.69,46.38,-5.25,131.69,46.38,-5.25,-0.38,0.35,0.19,0.84,3.0,271.31,-60.06,-153.44,271.31,-60.06,-153.44,-0.38,0.42,-0.74,-0.37
3.0,131.75,46.44,-5.31,131.75,46.44,-5.31,-0.37,0.35,0.19,0.84,3.0,271.69,-59.63,-153.75,271.69,-59.63,-153.75,-0.38,0.42,-0.74,-0.36
3.0,131.75,46.44,-5.5,131.75,46.44,-5.5,-0.37,0.35,0.19,0.84,3.0,271.81,-59.25,-154.06,271.81,-59.25,-154.06,-0.37,0.42,-0.74,-0.36
3.0,131.81,46.44,-5.56,131.81,46.44,-5.56,-0.37,0.35,0.19,0.84,3.0,271.69,-58.63,-154.44,271.69,-58.63,-154.44,-0.37,0.42,-0.75,-0.36
3.0,131.88,46.44,-5.5,131.88,46.44,-5.5,-0.37,0.35,0.19,0.84,3.0,271.38,-58.13,-154.63,271.38,-58.13,-154.63,-0.36,0.42,-0.75,-0.36
3.0,131.94,46.44,-5.5,131.94,46.44,-5.5,-0.37,0.35,0.19,0.84,3.0,271.0,-57.69,-154.75,271.0,-57.69,-154.75,-0.36,0.42,-0.75,-0.36
3.0,131.94,46.38,-5.56,131.94,46.38,-5.56,-0.37,0.35,0.19,0.84,3.0,270.25,-57.25,-154.75,270.25,-57.25,-154.75,-0.36,0.43,-0.75,-0.36
3.0,132.0,46.38,-5.63,132.0,46.38,-5.63,-0.37,0.35,0.19,0.84,3.0,269.88,-57.0,-154.75,269.88,-57.0,-154.75,-0.35,0.43,-0.75,-0.36
3.0,132.06,46.31,-5.56,132.06,46.31,-5.56,-0.37,0.35,0.19,0.84,3.0,269.19,-56.56,-154.81,269.19,-56.56,-154.81,-0.35,0.43,-0.75,-0.36
3.0,132.06,46.31,-5.5,132.06,46.31,-5.5,-0.37,0.35,0.19,0.84,3.0,268.5,-56.06,-154.81,268.5,-56.06,-154.81,-0.35,0.43,-0.75,-0.36
3.0,132.13,46.31,-5.5,132.13,46.31,-5.5,-0.37,0.35,0.19,0.84,3.0,267.94,-55.56,-154.88,267.94,-55.56,-154.88,-0.34,0.43,-0.75,-0.36
3.0,132.13,46.31,-5.44,132.13,46.31,-5.44,-0.37,0.35,0.19,0.84,3.0,267.38,-55.06,-155.0,267.38,-55.06,-155.0,-0.34,0.43,-0.76,-0.35
3.0,132.19,46.31,-5.38,132.19,46.31,-5.38,-0.37,0.35,0.19,0.84,3.0,266.88,-54.5,-155.19,266.88,-54.5,-155.19,-0.33,0.44,-0.76,-0.35
3.0,132.25,46.31,-5.44,132.25,46.31,-5.44,-0.37,0.35,0.19,0.84,3.0,266.44,-54.0,-155.25,266.44,-54.0,-155.25,-0.33,0.44,-0.76,-0.35
3.0,132.31,46.31,-5.38,132.31,46.31,-5.38,-0.37,0.35,0.19,0.84,3.0,266.13,-53.56,-155.44,266.13,-53.56,-155.44,-0.33,0.44,-0.76,-0.35
3.0,132.31,46.38,-5.38,132.31,46.38,-5.38,-0.37,0.35,0.19,0.84,3.0,265.88,-53.0,-155.63,265.88,-53.0,-155.63,-0.32,0.44,-0.76,-0.35
3.0,132.38,46.38,-5.38,132.38,46.38,-5.38,-0.37,0.35,0.19,0.84,3.0,265.63,-52.5,-155.75,265.63,-52.5,-155.75,-0.32,0.44,-0.77,-0.35
3.0,132.44,46.31,-5.44,132.44,46.31,-5.44,-0.37,0.35,0.19,0.84,3.0,265.25,-51.94,-155.88,265.25,-51.94,-155.88,-0.32,0.44,-0.77,-0.34
3.0,132.44,46.31,-5.44,132.44,46.31,-5.44,-0.37,0.35,0.19,0.84,3.0,264.81,-51.31,-156.0,264.81,-51.31,-156.0,-0.31,0.44,-0.77,-0.34
3.0,132.5,46.31,-5.44,132.5,46.31,-5.44,-0.37,0.35,0.19,0.84,3.0,264.31,-50.69,-156.19,264.31,-50.69,-156.19,-0.31,0.44,-0.77,-0.34
3.0,132.5,46.38,-5.63,132.5,46.38,-5.63,-0.37,0.35,0.19,0.84,3.0,264.0,-50.13,-156.31,264.0,-50.13,-156.31,-0.3,0.44,-0.78,-0.34
3.0,132.56,46.44,-5.88,132.56,46.44,-5.88,-0.37,0.35,0.19,0.84,3.0,263.5,-49.13,-156.69,263.5,-49.13,-156.69,-0.3,0.44,-0.78,-0.33
3.0,132.69,46.56,-5.94,132.69,46.56,-5.94,-0.37,0.35,0.19,0.84,3.0,262.81,-48.25,-156.88,262.81,-48.25,-156.88,-0.29,0.44,-0.78,-0.33
3.0,132.81,46.63,-5.94,132.81,46.63,-5.94,-0.37,0.35,0.19,0.84,3.0,261.94,-47.38,-157.06,261.94,-47.38,-157.06,-0.28,0.44,-0.79,-0.33
3.0,132.88,46.56,-5.88,132.88,46.56,-5.88,-0.37,0.35,0.19,0.84,3.0,261.13,-46.06,-157.5,261.13,-46.06,-157.5,-0.27,0.44,-0.79,-0.32
3.0,132.94,46.56,-5.88,132.94,46.56,-5.88,-0.37,0.35,0.19,0.84,3.0,260.31,-44.56,-158.06,260.31,-44.56,-158.06,-0.26,0.44,-0.8,-0.31
3.0,133.0,46.56,-5.88,133.0,46.56,-5.88,-0.37,0.35,0.19,0.84,3.0,259.69,-43.25,-158.44,259.69,-43.25,-158.44,-0.26,0.44,-0.8,-0.31
3.0,133.06,46.5,-5.88,133.06,46.5,-5.88,-0.36,0.35,0.19,0.84,3.0,259.25,-42.25,-158.75,259.25,-42.25,-158.75,-0.25,0.44,-0.81,-0.3
3.0,133.13,46.38,-6.0,133.13,46.38,-6.0,-0.36,0.35,0.19,0.84,3.0,259.13,-41.5,-159.0,259.13,-41.5,-159.0,-0.25,0.44,-0.81,-0.3
3.0,133.19,46.31,-6.06,133.19,46.31,-6.06,-0.36,0.35,0.19,0.84,3.0,259.06,-40.88,-159.19,259.06,-40.88,-159.19,-0.24,0.44,-0.82,-0.29
3.0,133.25,46.19,-6.19,133.25,46.19,-6.19,-0.36,0.34,0.19,0.84,3.0,303.94,-40.44,-159.31,303.94,-40.44,-159.31,-0.24,0.43,-0.82,-0.29
3.0,133.31,46.06,-6.38,133.31,46.06,-6.38,-0.36,0.34,0.19,0.84,3.0,304.13,-40.13,-159.38,304.13,-40.13,-159.38,-0.24,0.43,-0.82,-0.29
3.0,133.38,46.0,-6.5,133.38,46.0,-6.5,-0.36,0.34,0.19,0.84,3.0,304.25,-40.06,-159.38,304.25,-40.06,-159.38,-0.24,0.43,-0.82,-0.29
3.0,133.38,45.88,-6.75,133.38,45.88,-6.75,-0.36,0.34,0.2,0.84,3.0,304.13,-39.81,-159.19,304.13,-39.81,-159.19,-0.24,0.43,-0.82,-0.29
3.0,133.44,45.75,-6.94,133.44,45.75,-6.94,-0.36,0.34,0.2,0.85,3.0,303.94,-39.81,-159.0,303.94,-39.81,-159.0,-0.24,0.44,-0.82,-0.29
3.0,133.56,45.69,-7.06,133.56,45.69,-7.06,-0.36,0.34,0.2,0.85,3.0,303.69,-40.0,-158.69,303.69,-40.0,-158.69,-0.23,0.44,-0.82,-0.3
3.0,133.63,45.63,-7.06,133.63,45.63,-7.06,-0.36,0.34,0.2,0.85,3.0,303.5,-39.88,-158.25,303.5,-39.88,-158.25,-0.23,0.44,-0.82,-0.3
3.0,133.69,45.63,-7.13,133.69,45.63,-7.13,-0.36,0.34,0.2,0.85,3.0,303.44,-39.75,-157.94,303.44,-39.75,-157.94,-0.23,0.44,-0.81,-0.3
3.0,133.69,45.69,-7.13,133.69,45.69,-7.13,-0.36,0.34,0.2,0.85,3.0,303.25,-39.63,-157.75,303.25,-39.63,-157.75,-0.23,0.44,-0.81,-0.3
3.0,133.81,45.75,-6.94,133.81,45.75,-6.94,-0.36,0.34,0.19,0.85,3.0,303.38,-39.44,-157.75,303.38,-39.44,-157.75,-0.23,0.44,-0.82,-0.3
3.0,133.81,45.81,-6.88,133.81,45.81,-6.88,-0.36,0.34,0.19,0.85,3.0,303.56,-39.25,-157.63,303.56,-39.25,-157.63,-0.23,0.44,-0.82,-0.3
3.0,133.88,45.81,-6.81,133.88,45.81,-6.81,-0.36,0.34,0.19,0.85,3.0,303.63,-39.06,-157.56,303.63,-39.06,-157.56,-0.22,0.44,-0.82,-0.3
3.0,133.94,45.75,-6.75,133.94,45.75,-6.75,-0.36,0.34,0.19,0.85,3.0,303.88,-39.0,-157.5,303.88,-39.0,-157.5,-0.22,0.43,-0.82,-0.3
3.0,134.0,45.69,-6.69,134.0,45.69,-6.69,-0.36,0.34,0.19,0.85,3.0,304.13,-39.06,-157.44,304.13,-39.06,-157.44,-0.23,0.43,-0.82,-0.3
3.0,134.06,45.56,-6.75,134.06,45.56,-6.75,-0.36,0.34,0.19,0.85,3.0,304.38,-38.94,-157.44,304.38,-38.94,-157.44,-0.23,0.43,-0.82,-0.3
3.0,134.06,45.5,-6.81,134.06,45.5,-6.81,-0.36,0.34,0.19,0.85,3.0,304.56,-38.81,-157.38,304.56,-38.81,-157.38,-0.22,0.43,-0.82,-0.3
3.0,134.13,45.44,-6.81,134.13,45.44,-6.81,-0.36,0.34,0.19,0.85,3.0,304.63,-38.94,-157.25,304.63,-38.94,-157.25,-0.23,0.43,-0.82,-0.3
3.0,134.13,45.31,-6.81,134.13,45.31,-6.81,-0.36,0.34,0.19,0.85,3.0,304.56,-39.06,-157.13,304.56,-39.06,-157.13,-0.23,0.43,-0.82,-0.3
3.0,134.19,45.31,-6.88,134.19,45.31,-6.88,-0.36,0.34,0.19,0.85,3.0,304.56,-38.63,-157.13,304.56,-38.63,-157.13,-0.22,0.43,-0.82,-0.3
3.0,134.25,45.25,-6.94,134.25,45.25,-6.94,-0.36,0.34,0.19,0.85,3.0,304.69,-38.0,-157.19,304.69,-38.0,-157.19,-0.22,0.43,-0.82,-0.3
3.0,134.31,45.25,-7.06,134.31,45.25,-7.06,-0.36,0.34,0.19,0.85,3.0,304.75,-37.44,-157.31,304.75,-37.44,-157.31,-0.21,0.43,-0.83,-0.3
3.0,134.44,45.31,-7.38,134.44,45.31,-7.38,-0.36,0.34,0.2,0.85,3.0,304.69,-37.0,-157.38,304.69,-37.0,-157.38,-0.21,0.43,-0.83,-0.3
3.0,134.56,45.44,-7.56,134.56,45.44,-7.56,-0.36,0.34,0.2,0.85,3.0,304.69,-36.56,-157.44,304.69,-36.56,-157.44,-0.21,0.43,-0.83,-0.29
3.0,134.56,45.56,-7.5,134.56,45.56,-7.5,-0.36,0.34,0.2,0.85,3.0,304.75,-36.06,-157.31,304.75,-36.06,-157.31,-0.2,0.43,-0.83,-0.29
3.0,134.56,45.56,-7.56,134.56,45.56,-7.56,-0.36,0.34,0.2,0.85,3.0,304.88,-35.63,-157.25,304.88,-35.63,-157.25,-0.2,0.43,-0.83,-0.29
3.0,134.56,45.56,-7.56,134.56,45.56,-7.56,-0.35,0.34,0.2,0.85,3.0,305.13,-35.25,-157.44,305.13,-35.25,-157.44,-0.2,0.43,-0.83,-0.29
3.0,134.56,45.5,-7.63,134.56,45.5,-7.63,-0.36,0.34,0.2,0.85,3.0,305.44,-34.81,-157.81,305.44,-34.81,-157.81,-0.19,0.43,-0.83,-0.29
3.0,134.5,45.44,-7.88,134.5,45.44,-7.88,-0.36,0.34,0.2,0.85,3.0,305.75,-34.5,-158.25,305.75,-34.5,-158.25,-0.19,0.43,-0.84,-0.28
3.0,134.5,45.31,-8.13,134.5,45.31,-8.13,-0.36,0.34,0.2,0.85,3.0,306.19,-34.0,-158.69,306.19,-34.0,-158.69,-0.19,0.43,-0.84,-0.28
3.0,134.44,45.25,-8.38,134.44,45.25,-8.38,-0.36,0.33,0.2,0.85,3.0,306.44,-33.5,-158.94,306.44,-33.5,-158.94,-0.19,0.42,-0.84,-0.27
3.0,134.44,45.19,-8.56,134.44,45.19,-8.56,-0.36,0.33,0.2,0.85,3.0,307.0,-32.63,-159.44,307.0,-32.63,-159.44,-0.19,0.42,-0.85,-0.27
3.0,134.44,45.13,-8.75,134.44,45.13,-8.75,-0.36,0.33,0.2,0.85,3.0,307.38,-32.0,-159.81,307.38,-32.0,-159.81,-0.18,0.42,-0.85,-0.26
3.0,134.44,45.06,-8.88,134.44,45.06,-8.88,-0.36,0.33,0.2,0.85,3.0,307.63,-31.12,-160.06,307.63,-31.12,-160.06,-0.18,0.42,-0.85,-0.26
3.0,134.44,45.0,-9.0,134.44,45.0,-9.0,-0.36,0.33,0.2,0.85,3.0,307.81,-30.25,-160.31,307.81,-30.25,-160.31,-0.17,0.42,-0.86,-0.25
3.0,134.44,44.94,-9.13,134.44,44.94,-9.13,-0.36,0.33,0.2,0.85,3.0,307.94,-29.69,-160.44,307.94,-29.69,-160.44,-0.16,0.42,-0.86,-0.25
3.0,134.44,44.88,-9.31,134.44,44.88,-9.31,-0.36,0.33,0.21,0.85,3.0,308.13,-28.62,-160.56,308.13,-28.62,-160.56,-0.16,0.42,-0.86,-0.25
3.0,134.25,44.75,-9.56,134.25,44.75,-9.56,-0.36,0.33,0.21,0.85,3.0,308.25,-27.62,-160.81,308.25,-27.62,-160.81,-0.15,0.42,-0.86,-0.24
3.0,133.88,44.75,-8.75,133.88,44.75,-8.75,-0.36,0.33,0.2,0.85,3.0,308.38,-27.12,-161.31,308.38,-27.12,-161.31,-0.15,0.42,-0.87,-0.23
3.0,133.56,44.81,-8.25,133.56,44.81,-8.25,-0.36,0.33,0.2,0.85,3.0,308.56,-28.12,-162.63,308.56,-28.12,-162.63,-0.16,0.42,-0.86,-0.23
3.0,133.5,44.56,-8.75,133.5,44.56,-8.75,-0.36,0.32,0.2,0.85,3.0,308.25,-29.94,-162.19,308.25,-29.94,-162.19,-0.18,0.42,-0.85,-0.25
3.0,133.44,44.13,-8.88,133.44,44.13,-8.88,-0.37,0.32,0.2,0.85,3.0,307.19,-34.0,-160.31,307.19,-34.0,-160.31,-0.2,0.42,-0.84,-0.26
3.0,133.5,43.81,-8.94,133.5,43.81,-8.94,-0.37,0.32,0.2,0.85,3.0,307.69,-33.5,-160.88,307.69,-33.5,-160.88,-0.2,0.42,-0.85,-0.26
3.0,133.44,43.63,-9.13,133.44,43.63,-9.13,-0.37,0.32,0.21,0.85,3.0,308.19,-32.94,-160.88,308.19,-32.94,-160.88,-0.19,0.41,-0.85,-0.26
3.0,133.38,43.44,-9.69,133.38,43.44,-9.69,-0.37,0.31,0.21,0.85,3.0,309.06,-31.37,-160.38,309.06,-31.37,-160.38,-0.18,0.41,-0.86,-0.25
3.0,133.25,43.38,-10.38,133.25,43.38,-10.38,-0.37,0.31,0.21,0.85,3.0,309.13,-30.56,-160.31,309.13,-30.56,-160.31,-0.17,0.41,-0.86,-0.25
3.0,133.25,43.44,-10.63,133.25,43.44,-10.63,-0.37,0.31,0.21,0.85,3.0,309.06,-29.5,-160.25,309.06,-29.5,-160.25,-0.16,0.41,-0.86,-0.25
3.0,133.31,43.56,-10.69,133.31,43.56,-10.69,-0.37,0.31,0.21,0.85,3.0,309.19,-27.69,-160.06,309.19,-27.69,-160.06,-0.15,0.41,-0.86,-0.25
3.0,133.25,43.69,-10.81,133.25,43.69,-10.81,-0.37,0.31,0.22,0.85,3.0,309.25,-26.81,-159.88,309.25,-26.81,-159.88,-0.14,0.41,-0.87,-0.24
3.0,133.25,43.69,-11.06,133.25,43.69,-11.06,-0.37,0.31,0.22,0.85,3.0,309.38,-25.56,-159.75,309.38,-25.56,-159.75,-0.13,0.41,-0.87,-0.24
3.0,133.25,43.63,-11.44,133.25,43.63,-11.44,-0.37,0.31,0.22,0.85,3.0,309.5,-24.69,-159.88,309.5,-24.69,-159.88,-0.13,0.41,-0.87,-0.24
3.0,133.19,43.56,-11.5,133.19,43.56,-11.5,-0.37,0.31,0.22,0.85,3.0,309.63,-23.94,-160.13,309.63,-23.94,-160.13,-0.12,0.41,-0.87,-0.23
3.0,133.19,43.56,-11.63,133.19,43.56,-11.63,-0.37,0.31,0.22,0.85,3.0,309.75,-23.12,-160.44,309.75,-23.12,-160.44,-0.11,0.41,-0.88,-0.23
3.0,133.19,43.56,-11.75,133.19,43.56,-11.75,-0.37,0.31,0.22,0.85,3.0,309.81,-22.31,-160.69,309.81,-22.31,-160.69,-0.11,0.41,-0.88,-0.23
3.0,133.19,43.56,-11.81,133.19,43.56,-11.81,-0.37,0.31,0.22,0.85,3.0,309.75,-21.5,-160.75,309.75,-21.5,-160.75,-0.1,0.41,-0.88,-0.22
3.0,133.19,43.56,-11.88,133.19,43.56,-11.88,-0.37,0.31,0.22,0.85,3.0,309.75,-20.75,-160.69,309.75,-20.75,-160.69,-0.1,0.41,-0.88,-0.22
3.0,133.19,43.63,-11.94,133.19,43.63,-11.94,-0.37,0.31,0.22,0.85,3.0,309.75,-20.06,-160.56,309.75,-20.06,-160.56,-0.09,0.41,-0.88,-0.22
3.0,133.19,43.63,-12.0,133.19,43.63,-12.0,-0.37,0.31,0.22,0.85,3.0,309.75,-19.62,-160.69,309.75,-19.62,-160.69,-0.09,0.41,-0.88,-0.22
3.0,133.19,43.69,-12.13,133.19,43.69,-12.13,-0.37,0.31,0.22,0.85,3.0,309.88,-19.44,-160.94,309.88,-19.44,-160.94,-0.09,0.41,-0.88,-0.22
3.0,133.19,43.69,-12.19,133.19,43.69,-12.19,-0.37,0.31,0.22,0.85,3.0,310.0,-19.5,-161.31,310.0,-19.5,-161.31,-0.09,0.41,-0.88,-0.21
3.0,133.19,43.63,-12.25,133.19,43.63,-12.25,-0.37,0.31,0.22,0.85,3.0,310.19,-19.56,-161.75,310.19,-19.56,-161.75,-0.09,0.41,-0.88,-0.21
3.0,133.19,43.56,-12.31,133.19,43.56,-12.31,-0.37,0.31,0.23,0.85,3.0,310.38,-19.31,-162.19,310.38,-19.31,-162.19,-0.09,0.41,-0.88,-0.2
3.0,133.19,43.56,-12.31,133.19,43.56,-12.31,-0.37,0.31,0.23,0.85,3.0,310.56,-19.12,-162.38,310.56,-19.12,-162.38,-0.09,0.41,-0.89,-0.2
3.0,133.19,43.56,-12.44,133.19,43.56,-12.44,-0.37,0.31,0.23,0.85,3.0,310.63,-19.0,-162.5,310.63,-19.0,-162.5,-0.09,0.41,-0.89,-0.2
3.0,133.25,43.5,-12.44,133.25,43.5,-12.44,-0.37,0.31,0.23,0.85,3.0,310.75,-18.94,-162.44,310.75,-18.94,-162.44,-0.09,0.41,-0.89,-0.2
3.0,133.31,43.5,-12.25,133.31,43.5,-12.25,-0.37,0.31,0.22,0.85,3.0,310.75,-19.06,-162.13,310.75,-19.06,-162.13,-0.09,0.41,-0.89,-0.21
3.0,133.38,43.44,-12.25,133.38,43.44,-12.25,-0.37,0.31,0.22,0.85,3.0,310.81,-19.25,-161.94,310.81,-19.25,-161.94,-0.09,0.41,-0.89,-0.21
3.0,133.38,43.44,-12.5,133.38,43.44,-12.5,-0.37,0.31,0.23,0.85,3.0,310.81,-19.19,-161.75,310.81,-19.19,-161.75,-0.09,0.4,-0.89,-0.21
3.0,133.38,43.5,-12.56,133.38,43.5,-12.56,-0.37,0.31,0.23,0.85,3.0,310.81,-18.75,-161.69,310.81,-18.75,-161.69,-0.09,0.41,-0.89,-0.21
3.0,133.38,43.5,-12.56,133.38,43.5,-12.56,-0.37,0.31,0.23,0.85,3.0,310.75,-18.31,-161.69,310.75,-18.31,-161.69,-0.08,0.41,-0.89,-0.21
3.0,133.38,43.63,-12.56,133.38,43.63,-12.56,-0.37,0.31,0.23,0.85,3.0,310.75,-18.06,-161.88,310.75,-18.06,-161.88,-0.08,0.41,-0.89,-0.2
3.0,133.38,43.75,-12.63,133.38,43.75,-12.63,-0.36,0.31,0.23,0.85,3.0,310.69,-17.69,-162.0,310.69,-17.69,-162.0,-0.08,0.41,-0.89,-0.2
3.0,133.44,43.81,-12.63,133.44,43.81,-12.63,-0.36,0.31,0.23,0.85,3.0,310.81,-17.19,-162.13,310.81,-17.19,-162.13,-0.07,0.41,-0.89,-0.2
3.0,133.44,43.81,-12.75,133.44,43.81,-12.75,-0.36,0.31,0.23,0.85,3.0,310.94,-16.87,-162.38,310.94,-16.87,-162.38,-0.07,0.41,-0.89,-0.2
3.0,133.44,43.81,-12.81,133.44,43.81,-12.81,-0.36,0.31,0.23,0.85,3.0,311.13,-16.75,-162.75,311.13,-16.75,-162.75,-0.07,0.4,-0.89,-0.19
3.0,133.44,43.75,-12.81,133.44,43.75,-12.81,-0.36,0.31,0.23,0.85,3.0,311.31,-16.5,-163.25,311.31,-16.5,-163.25,-0.07,0.4,-0.89,-0.19
3.0,133.5,43.75,-12.88,133.5,43.75,-12.88,-0.36,0.31,0.23,0.85,3.0,311.5,-16.19,-163.75,311.5,-16.19,-163.75,-0.07,0.4,-0.89,-0.18
3.0,133.5,43.69,-13.0,133.5,43.69,-13.0,-0.36,0.31,0.23,0.85,3.0,311.56,-15.94,-164.25,311.56,-15.94,-164.25,-0.07,0.4,-0.9,-0.18
3.0,133.56,43.5,-13.31,133.56,43.5,-13.31,-0.36,0.31,0.23,0.85,3.0,311.56,-15.63,-164.56,311.56,-15.63,-164.56,-0.07,0.4,-0.9,-0.17
3.0,133.56,43.38,-13.56,133.56,43.38,-13.56,-0.36,0.31,0.23,0.85,3.0,311.63,-15.25,-164.69,311.63,-15.25,-164.69,-0.07,0.4,-0.9,-0.17
3.0,133.56,43.38,-13.75,133.56,43.38,-13.75,-0.36,0.31,0.23,0.85,3.0,311.69,-14.81,-164.88,311.69,-14.81,-164.88,-0.07,0.4,-0.9,-0.17
3.0,133.56,43.44,-13.69,133.56,43.44,-13.69,-0.36,0.31,0.23,0.85,3.0,311.75,-14.44,-165.13,311.75,-14.44,-165.13,-0.06,0.4,-0.9,-0.17
3.0,133.5,43.5,-13.63,133.5,43.5,-13.63,-0.36,0.31,0.23,0.85,3.0,311.88,-14.13,-165.44,311.88,-14.13,-165.44,-0.06,0.4,-0.9,-0.16
3.0,133.5,43.56,-13.69,133.5,43.56,-13.69,-0.36,0.31,0.23,0.85,3.0,311.94,-13.88,-165.75,311.94,-13.88,-165.75,-0.06,0.4,-0.9,-0.16
3.0,133.5,43.5,-13.69,133.5,43.5,-13.69,-0.36,0.31,0.23,0.85,3.0,312.19,-13.75,-166.13,312.19,-13.75,-166.13,-0.06,0.4,-0.9,-0.16
3.0,133.5,43.5,-13.63,133.5,43.5,-13.63,-0.36,0.31,0.23,0.85,3.0,312.31,-13.63,-166.5,312.31,-13.63,-166.5,-0.06,0.4,-0.9,-0.15
3.0,133.5,43.5,-13.69,133.5,43.5,-13.69,-0.36,0.31,0.23,0.85,3.0,312.5,-13.5,-166.88,312.5,-13.5,-166.88,-0.06,0.4,-0.9,-0.15
3.0,133.5,43.56,-13.63,133.5,43.56,-13.63,-0.36,0.31,0.23,0.85,3.0,312.69,-13.38,-167.25,312.69,-13.38,-167.25,-0.06,0.4,-0.9,-0.15
3.0,133.5,43.63,-13.63,133.5,43.63,-13.63,-0.36,0.31,0.23,0.85,3.0,312.88,-13.13,-167.63,312.88,-13.13,-167.63,-0.06,0.39,-0.91,-0.14
3.0,133.5,43.63,-13.63,133.5,43.63,-13.63,-0.36,0.31,0.23,0.85,3.0,313.06,-12.44,-167.94,313.06,-12.44,-167.94,-0.06,0.39,-0.91,-0.14
3.0,133.5,43.63,-13.5,133.5,43.63,-13.5,-0.36,0.31,0.23,0.85,3.0,313.13,-11.75,-168.25,313.13,-11.75,-168.25,-0.05,0.39,-0.91,-0.13
3.0,133.5,43.63,-13.38,133.5,43.63,-13.38,-0.36,0.31,0.23,0.85,3.0,313.19,-11.44,-168.5,313.19,-11.44,-168.5,-0.05,0.39,-0.91,-0.13
3.0,133.5,43.63,-13.31,133.5,43.63,-13.31,-0.36,0.31,0.23,0.85,3.0,313.31,-11.06,-168.81,313.31,-11.06,-168.81,-0.05,0.39,-0.91,-0.13
3.0,133.5,43.63,-13.38,133.5,43.63,-13.38,-0.36,0.31,0.23,0.85,3.0,313.31,-10.88,-169.19,313.31,-10.88,-169.19,-0.05,0.39,-0.91,-0.12
3.0,133.5,43.56,-13.44,133.5,43.56,-13.44,-0.36,0.31,0.23,0.85,3.0,313.38,-10.5,-169.56,313.38,-10.5,-169.56,-0.05,0.39,-0.91,-0.12
3.0,133.5,43.56,-13.5,133.5,43.56,-13.5,-0.36,0.31,0.23,0.85,3.0,313.5,-10.13,-169.94,313.5,-10.13,-169.94,-0.05,0.39,-0.91,-0.11
3.0,133.5,43.5,-13.63,133.5,43.5,-13.63,-0.36,0.31,0.23,0.85,3.0,313.56,-9.88,-170.19,313.56,-9.88,-170.19,-0.05,0.39,-0.91,-0.11
3.0,133.5,43.44,-13.75,133.5,43.44,-13.75,-0.36,0.31,0.23,0.85,3.0,313.63,-9.44,-170.31,313.63,-9.44,-170.31,-0.04,0.39,-0.91,-0.11
3.0,133.5,43.5,-13.81,133.5,43.5,-13.81,-0.36,0.31,0.23,0.85,3.0,313.75,-9.06,-170.25,313.75,-9.06,-170.25,-0.04,0.39,-0.91,-0.11
3.0,133.5,43.44,-13.88,133.5,43.44,-13.88,-0.36,0.3,0.23,0.85,3.0,313.81,-9.06,-170.06,313.81,-9.06,-170.06,-0.04,0.39,-0.91,-0.11
3.0,133.5,43.25,-13.88,133.5,43.25,-13.88,-0.36,0.3,0.23,0.85,3.0,314.06,-9.0,-169.69,314.06,-9.0,-169.69,-0.04,0.39,-0.91,-0.11
3.0,133.44,43.06,-14.38,133.44,43.06,-14.38,-0.36,0.3,0.24,0.85,3.0,314.31,-8.63,-169.31,314.31,-8.63,-169.31,-0.03,0.39,-0.92,-0.11
3.0,133.38,43.0,-15.06,133.38,43.0,-15.06,-0.37,0.3,0.24,0.85,3.0,314.38,-8.5,-169.25,314.38,-8.5,-169.25,-0.03,0.38,-0.92,-0.11
3.0,133.31,43.25,-15.0,133.31,43.25,-15.0,-0.37,0.3,0.24,0.85,3.0,314.25,-8.75,-169.56,314.25,-8.75,-169.56,-0.04,0.39,-0.92,-0.11
3.0,133.38,43.5,-14.63,133.38,43.5,-14.63,-0.36,0.3,0.24,0.85,3.0,314.19,-8.88,-169.81,314.19,-8.88,-169.81,-0.04,0.39,-0.91,-0.11
3.0,133.44,43.69,-14.56,133.44,43.69,-14.56,-0.36,0.31,0.24,0.85,3.0,314.19,-8.81,-170.06,314.19,-8.81,-170.06,-0.04,0.39,-0.92,-0.11
3.0,133.5,43.81,-14.5,133.5,43.81,-14.5,-0.36,0.31,0.24,0.85,3.0,314.13,-8.75,-170.56,314.13,-8.75,-170.56,-0.04,0.39,-0.92,-0.1
3.0,133.5,43.94,-14.44,133.5,43.94,-14.44,-0.36,0.31,0.24,0.85,3.0,314.0,-8.5,-171.0,314.0,-8.5,-171.0,-0.04,0.39,-0.92,-0.1
3.0,133.44,43.94,-14.56,133.44,43.94,-14.56,-0.36,0.31,0.24,0.85,3.0,313.94,-8.06,-171.44,313.94,-8.06,-171.44,-0.04,0.39,-0.92,-0.09
3.0,133.5,43.94,-14.69,133.5,43.94,-14.69,-0.36,0.31,0.24,0.85,3.0,313.81,-7.5,-171.88,313.81,-7.5,-171.88,-0.03,0.39,-0.92,-0.09
3.0,133.56,43.94,-14.81,133.56,43.94,-14.81,-0.36,0.31,0.24,0.85,3.0,313.69,-6.75,-172.19,313.69,-6.75,-172.19,-0.03,0.39,-0.92,-0.08
3.0,133.63,44.0,-15.0,133.63,44.0,-15.0,-0.36,0.31,0.24,0.85,3.0,313.56,-5.88,-172.5,313.56,-5.88,-172.5,-0.02,0.39,-0.92,-0.08
3.0,133.81,44.19,-15.13,133.81,44.19,-15.13,-0.36,0.31,0.24,0.85,3.0,313.31,-4.75,-172.81,313.31,-4.75,-172.81,-0.01,0.39,-0.92,-0.07
3.0,134.0,44.31,-15.31,134.0,44.31,-15.31,-0.36,0.31,0.24,0.85,3.0,313.19,-3.38,-172.94,313.19,-3.38,-172.94,0.0,0.4,-0.92,-0.07
3.0,134.25,44.5,-15.38,134.25,44.5,-15.38,-0.36,0.31,0.24,0.85,3.0,312.88,-2.44,-172.81,312.88,-2.44,-172.81,0.01,0.4,-0.91,-0.07
3.0,134.38,44.88,-15.25,134.38,44.88,-15.25,-0.35,0.32,0.24,0.85,3.0,312.63,-1.94,-172.81,312.63,-1.94,-172.81,0.01,0.4,-0.91,-0.06
3.0,134.56,45.38,-15.19,134.56,45.38,-15.19,-0.35,0.32,0.24,0.84,3.0,312.5,-1.5,-173.06,312.5,-1.5,-173.06,0.01,0.4,-0.91,-0.06
3.0,134.81,45.88,-14.88,134.81,45.88,-14.88,-0.35,0.33,0.24,0.84,3.0,312.5,-1.63,-173.63,312.5,-1.63,-173.63,0.01,0.4,-0.91,-0.06
3.0,135.06,46.0,-14.69,135.06,46.0,-14.69,-0.35,0.33,0.24,0.85,3.0,312.63,-2.81,-174.44,312.63,-2.81,-174.44,-0.01,0.4,-0.91,-0.05
3.0,135.31,45.75,-14.81,135.31,45.75,-14.81,-0.35,0.32,0.24,0.85,3.0,312.63,-4.75,-175.5,312.63,-4.75,-175.5,-0.03,0.4,-0.91,-0.05
3.0,135.63,45.31,-15.0,135.63,45.31,-15.0,-0.34,0.32,0.24,0.85,3.0,312.25,-6.75,-176.75,312.25,-6.75,-176.75,-0.05,0.41,-0.91,-0.05
3.0,135.94,44.88,-15.19,135.94,44.88,-15.19,-0.34,0.32,0.24,0.85,3.0,311.81,-8.5,-178.06,311.81,-8.5,-178.06,-0.07,0.41,-0.91,-0.04
3.0,136.19,44.38,-15.5,136.19,44.38,-15.5,-0.34,0.31,0.24,0.85,3.0,310.75,-10.06,-179.38,310.75,-10.06,-179.38,-0.08,0.42,-0.9,-0.04
3.0,136.44,43.94,-15.94,136.44,43.94,-15.94,-0.34,0.31,0.24,0.85,3.0,310.19,-10.81,179.63,310.19,-10.81,179.63,-0.09,0.42,-0.9,-0.04
3.0,136.56,43.81,-16.19,136.56,43.81,-16.19,-0.34,0.31,0.24,0.85,3.0,311.13,-10.0,-179.25,311.13,-10.0,-179.25,-0.07,0.41,-0.91,-0.04
3.0,136.75,43.94,-15.56,136.75,43.94,-15.56,-0.34,0.31,0.23,0.86,3.0,312.0,-8.81,-178.0,312.0,-8.81,-178.0,-0.06,0.4,-0.91,-0.05
3.0,136.88,44.13,-14.06,136.88,44.13,-14.06,-0.34,0.32,0.22,0.86,3.0,312.44,-7.38,-177.56,312.44,-7.38,-177.56,-0.05,0.4,-0.91,-0.04
3.0,137.0,44.44,-11.88,137.0,44.44,-11.88,-0.34,0.33,0.21,0.86,3.0,312.63,-6.38,-177.31,312.63,-6.38,-177.31,-0.04,0.4,-0.91,-0.04
3.0,137.06,44.81,-10.38,137.06,44.81,-10.38,-0.34,0.33,0.2,0.86,3.0,312.75,-5.25,-176.81,312.75,-5.25,-176.81,-0.03,0.4,-0.92,-0.04
3.0,137.38,44.69,-10.44,137.38,44.69,-10.44,-0.33,0.33,0.2,0.86,3.0,312.94,-3.81,-176.06,312.94,-3.81,-176.06,-0.01,0.4,-0.92,-0.04
3.0,137.81,44.13,-10.75,137.81,44.13,-10.75,-0.33,0.32,0.2,0.86,3.0,313.06,-3.06,-175.63,313.06,-3.06,-175.63,-0.01,0.4,-0.92,-0.05
3.0,138.13,43.56,-10.38,138.13,43.56,-10.38,-0.33,0.32,0.2,0.87,3.0,313.13,-2.75,-175.38,313.13,-2.75,-175.38,-0.01,0.4,-0.92,-0.05
3.0,138.44,43.19,-9.69,138.44,43.19,-9.69,-0.33,0.32,0.19,0.87,3.0,313.19,-2.31,-175.38,313.19,-2.31,-175.38,-0.0,0.4,-0.92,-0.04
3.0,138.63,43.13,-8.88,138.63,43.13,-8.88,-0.33,0.32,0.19,0.87,3.0,313.06,-1.94,-175.56,313.06,-1.94,-175.56,0.0,0.4,-0.92,-0.04
3.0,138.81,43.0,-8.56,138.81,43.0,-8.56,-0.33,0.32,0.18,0.87,3.0,312.88,-1.37,-175.69,312.88,-1.37,-175.69,0.01,0.4,-0.92,-0.04
3.0,139.0,42.81,-8.44,139.0,42.81,-8.44,-0.32,0.32,0.18,0.87,3.0,312.75,-0.63,-175.75,312.75,-0.63,-175.75,0.01,0.4,-0.92,-0.03
3.0,139.13,42.5,-8.25,139.13,42.5,-8.25,-0.32,0.32,0.18,0.87,3.0,312.69,-0.06,-175.81,312.69,-0.06,-175.81,0.01,0.4,-0.92,-0.03
3.0,139.44,42.19,-8.06,139.44,42.19,-8.06,-0.32,0.32,0.18,0.87,3.0,312.63,0.19,-175.75,312.63,0.19,-175.75,0.02,0.4,-0.92,-0.03
3.0,139.56,41.88,-7.81,139.56,41.88,-7.81,-0.32,0.32,0.17,0.88,3.0,312.56,0.56,-175.81,312.56,0.56,-175.81,0.02,0.4,-0.91,-0.03
3.0,139.81,41.63,-7.56,139.81,41.63,-7.56,-0.32,0.32,0.17,0.88,3.0,312.56,1.0,-175.75,312.56,1.0,-175.75,0.02,0.4,-0.92,-0.03
3.0,140.0,41.56,-7.38,140.0,41.56,-7.38,-0.32,0.32,0.17,0.88,3.0,312.56,1.5,-175.69,312.56,1.5,-175.69,0.03,0.4,-0.91,-0.03
3.0,140.06,41.56,-7.25,140.06,41.56,-7.25,-0.32,0.32,0.17,0.88,3.0,312.56,1.94,-175.69,312.56,1.94,-175.69,0.03,0.4,-0.91,-0.03
3.0,140.19,41.5,-7.13,140.19,41.5,-7.13,-0.32,0.32,0.17,0.88,3.0,312.5,2.06,-175.75,312.5,2.06,-175.75,0.03,0.4,-0.91,-0.03
3.0,140.25,41.5,-7.0,140.25,41.5,-7.0,-0.32,0.32,0.17,0.88,3.0,312.44,2.0,-175.81,312.44,2.0,-175.81,0.03,0.4,-0.91,-0.03
3.0,140.44,41.38,-6.94,140.44,41.38,-6.94,-0.32,0.32,0.17,0.88,3.0,312.38,2.06,-175.88,312.38,2.06,-175.88,0.03,0.4,-0.91,-0.03
3.0,140.5,41.31,-6.88,140.5,41.31,-6.88,-0.32,0.32,0.16,0.88,3.0,312.31,2.19,-175.88,312.31,2.19,-175.88,0.03,0.4,-0.91,-0.02
3.0,140.56,41.25,-6.81,140.56,41.25,-6.81,-0.32,0.32,0.16,0.88,3.0,312.19,2.31,-175.94,312.19,2.31,-175.94,0.03,0.4,-0.91,-0.02
3.0,140.63,41.19,-6.81,140.63,41.19,-6.81,-0.31,0.32,0.16,0.88,3.0,312.13,2.63,-175.81,312.13,2.63,-175.81,0.04,0.41,-0.91,-0.02
3.0,140.63,41.19,-6.81,140.63,41.19,-6.81,-0.31,0.32,0.16,0.88,3.0,312.06,2.88,-175.69,312.06,2.88,-175.69,0.04,0.41,-0.91,-0.02
3.0,140.94,41.25,-6.75,140.94,41.25,-6.75,-0.31,0.32,0.16,0.88,3.0,312.0,2.88,-175.5,312.0,2.88,-175.5,0.04,0.41,-0.91,-0.03
3.0,140.88,41.19,-6.81,140.88,41.19,-6.81,-0.31,0.32,0.16,0.88,3.0,311.88,2.81,-175.38,311.88,2.81,-175.38,0.04,0.41,-0.91,-0.03
3.0,140.94,41.25,-6.75,140.94,41.25,-6.75,-0.31,0.32,0.16,0.88,3.0,311.75,2.69,-175.31,311.75,2.69,-175.31,0.04,0.41,-0.91,-0.03
3.0,140.94,41.31,-6.56,140.94,41.31,-6.56,-0.31,0.32,0.16,0.88,3.0,311.56,2.81,-175.25,311.56,2.81,-175.25,0.04,0.41,-0.91,-0.03
3.0,140.94,41.25,-6.69,140.94,41.25,-6.69,-0.31,0.32,0.16,0.88,3.0,311.56,3.31,-175.19,311.56,3.31,-175.19,0.04,0.41,-0.91,-0.03
3.0,141.0,41.31,-6.75,141.0,41.31,-6.75,-0.31,0.32,0.16,0.88,3.0,311.63,3.5,-175.06,311.63,3.5,-175.06,0.05,0.41,-0.91,-0.03
3.0,141.0,41.44,-6.5,141.0,41.44,-6.5,-0.31,0.32,0.16,0.88,3.0,311.63,3.5,-175.0,311.63,3.5,-175.0,0.05,0.41,-0.91,-0.03
3.0,141.19,41.44,-6.56,141.19,41.44,-6.56,-0.31,0.32,0.16,0.88,3.0,311.63,3.44,-174.94,311.63,3.44,-174.94,0.05,0.41,-0.91,-0.03
3.0,141.19,41.5,-6.75,141.19,41.5,-6.75,-0.31,0.32,0.16,0.88,3.0,311.56,3.31,-175.0,311.56,3.31,-175.0,0.04,0.41,-0.91,-0.03
3.0,141.25,41.44,-6.81,141.25,41.44,-6.81,-0.31,0.32,0.16,0.88,3.0,311.5,3.25,-175.06,311.5,3.25,-175.06,0.04,0.41,-0.91,-0.03
3.0,141.25,41.44,-6.81,141.25,41.44,-6.81,-0.31,0.32,0.16,0.88,3.0,311.5,3.25,-175.06,311.5,3.25,-175.06,0.04,0.41,-0.91,-0.03
3.0,141.31,41.44,-6.88,141.31,41.44,-6.88,-0.31,0.32,0.16,0.88,3.0,311.63,3.25,-175.0,311.63,3.25,-175.0,0.04,0.41,-0.91,-0.03
3.0,141.31,41.38,-7.06,141.31,41.38,-7.06,-0.31,0.32,0.16,0.88,3.0,311.69,3.31,-174.88,311.69,3.31,-174.88,0.05,0.41,-0.91,-0.03
3.0,141.38,41.38,-7.13,141.38,41.38,-7.13,-0.31,0.32,0.16,0.88,3.0,311.69,3.31,-174.81,311.69,3.31,-174.81,0.04,0.41,-0.91,-0.03
3.0,141.44,41.31,-7.19,141.44,41.31,-7.19,-0.31,0.32,0.16,0.88,3.0,311.69,3.19,-174.81,311.69,3.19,-174.81,0.04,0.41,-0.91,-0.03
3.0,141.63,41.19,-7.31,141.63,41.19,-7.31,-0.31,0.32,0.16,0.88,3.0,311.69,3.13,-174.81,311.69,3.13,-174.81,0.04,0.41,-0.91,-0.03
3.0,141.69,41.19,-7.25,141.69,41.19,-7.25,-0.31,0.32,0.16,0.88,3.0,311.63,3.0,-174.88,311.63,3.0,-174.88,0.04,0.41,-0.91,-0.03
3.0,141.75,41.19,-7.19,141.75,41.19,-7.19,-0.31,0.32,0.16,0.88,3.0,311.63,2.88,-174.94,311.63,2.88,-174.94,0.04,0.41,-0.91,-0.03
3.0,141.75,41.19,-7.19,141.75,41.19,-7.19,-0.31,0.32,0.16,0.88,3.0,311.63,2.75,-174.94,311.63,2.75,-174.94,0.04,0.41,-0.91,-0.03
3.0,141.75,41.25,-7.13,141.75,41.25,-7.13,-0.31,0.32,0.16,0.88,3.0,311.63,2.56,-174.94,311.63,2.56,-174.94,0.04,0.41,-0.91,-0.03
3.0,141.81,41.25,-7.0,141.81,41.25,-7.0,-0.31,0.32,0.16,0.88,3.0,311.56,2.5,-174.94,311.56,2.5,-174.94,0.04,0.41,-0.91,-0.03
3.0,141.81,41.25,-7.06,141.81,41.25,-7.06,-0.31,0.32,0.16,0.88,3.0,311.63,2.5,-174.88,311.63,2.5,-174.88,0.04,0.41,-0.91,-0.03
3.0,141.81,41.19,-7.06,141.81,41.19,-7.06,-0.31,0.32,0.16,0.88,3.0,311.63,2.56,-174.81,311.63,2.56,-174.81,0.04,0.41,-0.91,-0.03
3.0,141.81,41.19,-7.0,141.81,41.19,-7.0,-0.31,0.32,0.16,0.88,3.0,311.56,2.63,-174.75,311.56,2.63,-174.75,0.04,0.41,-0.91,-0.03
3.0,141.81,41.19,-7.0,141.81,41.19,-7.0,-0.31,0.32,0.16,0.88,3.0,311.56,2.63,-174.75,311.56,2.63,-174.75,0.04,0.41,-0.91,-0.03
3.0,141.81,41.19,-7.0,141.81,41.19,-7.0,-0.31,0.32,0.16,0.88,3.0,311.56,2.56,-174.81,311.56,2.56,-174.81,0.04,0.41,-0.91,-0.03
3.0,141.81,41.13,-7.0,141.81,41.13,-7.0,-0.31,0.32,0.16,0.88,3.0,311.56,2.38,-174.88,311.56,2.38,-174.88,0.04,0.41,-0.91,-0.03
3.0,141.81,41.06,-7.0,141.81,41.06,-7.0,-0.31,0.32,0.16,0.88,3.0,311.56,2.19,-174.88,311.56,2.19,-174.88,0.04,0.41,-0.91,-0.03
3.0,141.81,41.06,-6.94,141.81,41.06,-6.94,-0.31,0.32,0.16,0.88,3.0,311.5,2.13,-174.88,311.5,2.13,-174.88,0.04,0.41,-0.91,-0.03
3.0,141.81,40.94,-6.94,141.81,40.94,-6.94,-0.31,0.32,0.16,0.88,3.0,311.5,2.13,-174.88,311.5,2.13,-174.88,0.04,0.41,-0.91,-0.03
3.0,141.88,40.81,-6.75,141.88,40.81,-6.75,-0.31,0.32,0.16,0.88,3.0,311.5,2.13,-174.88,311.5,2.13,-174.88,0.04,0.41,-0.91,-0.03
3.0,141.94,40.81,-6.56,141.94,40.81,-6.56,-0.3,0.32,0.16,0.88,3.0,311.44,2.13,-174.88,311.44,2.13,-174.88,0.04,0.41,-0.91,-0.03
3.0,141.94,40.81,-6.56,141.94,40.81,-6.56,-0.31,0.32,0.16,0.88,3.0,311.44,2.25,-174.94,311.44,2.25,-174.94,0.04,0.41,-0.91,-0.03
3.0,141.88,40.81,-6.63,141.88,40.81,-6.63,-0.31,0.32,0.16,0.88,3.0,311.44,2.25,-174.88,311.44,2.25,-174.88,0.04,0.41,-0.91,-0.03
3.0,141.94,40.81,-6.56,141.94,40.81,-6.56,-0.3,0.32,0.16,0.88,3.0,311.38,2.25,-174.88,311.38,2.25,-174.88,0.04,0.41,-0.91,-0.03
3.0,141.94,40.81,-6.5,141.94,40.81,-6.5,-0.3,0.32,0.16,0.88,3.0,311.38,2.25,-174.88,311.38,2.25,-174.88,0.04,0.41,-0.91,-0.03
3.0,141.94,40.88,-6.5,141.94,40.88,-6.5,-0.3,0.32,0.16,0.88,3.0,311.38,2.25,-174.88,311.38,2.25,-174.88,0.04,0.41,-0.91,-0.03
3.0,141.94,40.88,-6.5,141.94,40.88,-6.5,-0.3,0.32,0.16,0.88,3.0,311.38,2.25,-174.88,311.38,2.25,-174.88,0.04,0.41,-0.91,-0.03
3.0,141.94,40.88,-6.5,141.94,40.88,-6.5,-0.3,0.32,0.16,0.88,3.0,311.38,2.25,-174.88,311.38,2.25,-174.88,0.04,0.41,-0.91,-0.03
3.0,141.94,40.94,-6.5,141.94,40.94,-6.5,-0.3,0.32,0.16,0.88,3.0,311.31,2.31,-174.94,311.31,2.31,-174.94,0.04,0.41,-0.91,-0.03
3.0,141.94,40.94,-6.5,141.94,40.94,-6.5,-0.3,0.32,0.16,0.88,3.0,311.25,2.25,-175.0,311.25,2.25,-175.0,0.04,0.41,-0.91,-0.03
3.0,141.94,40.94,-6.56,141.94,40.94,-6.56,-0.3,0.32,0.16,0.88,3.0,311.19,2.13,-175.06,311.19,2.13,-175.06,0.03,0.41,-0.91,-0.03
3.0,141.94,40.94,-6.56,141.94,40.94,-6.56,-0.3,0.32,0.16,0.88,3.0,311.19,2.0,-175.13,311.19,2.0,-175.13,0.03,0.41,-0.91,-0.03
3.0,141.94,41.0,-6.63,141.94,41.0,-6.63,-0.3,0.32,0.16,0.88,3.0,311.19,1.94,-175.13,311.19,1.94,-175.13,0.03,0.41,-0.91,-0.03
3.0,141.94,41.0,-6.69,141.94,41.0,-6.69,-0.3,0.32,0.16,0.88,3.0,311.19,1.88,-175.19,311.19,1.88,-175.19,0.03,0.41,-0.91,-0.03
3.0,141.94,40.94,-6.63,141.94,40.94,-6.63,-0.3,0.32,0.16,0.88,3.0,311.13,1.94,-175.25,311.13,1.94,-175.25,0.03,0.41,-0.91,-0.03
3.0,141.94,40.88,-6.56,141.94,40.88,-6.56,-0.3,0.32,0.16,0.88,3.0,311.13,2.06,-175.25,311.13,2.06,-175.25,0.03,0.41,-0.91,-0.03
3.0,142.0,40.88,-6.63,142.0,40.88,-6.63,-0.3,0.32,0.16,0.88,3.0,311.13,2.19,-175.19,311.13,2.19,-175.19,0.03,0.41,-0.91,-0.03
3.0,142.0,40.81,-6.56,142.0,40.81,-6.56,-0.3,0.32,0.16,0.88,3.0,311.13,2.25,-175.19,311.13,2.25,-175.19,0.04,0.41,-0.91,-0.03
3.0,142.0,40.81,-6.56,142.0,40.81,-6.56,-0.3,0.32,0.16,0.89,3.0,311.13,2.25,-175.19,311.13,2.25,-175.19,0.04,0.41,-0.91,-0.03
3.0,142.06,40.81,-6.5,142.06,40.81,-6.5,-0.3,0.32,0.16,0.89,3.0,311.13,2.25,-175.19,311.13,2.25,-175.19,0.04,0.41,-0.91,-0.03
3.0,142.06,40.81,-6.5,142.06,40.81,-6.5,-0.3,0.32,0.16,0.89,3.0,311.19,2.25,-175.13,311.19,2.25,-175.13,0.04,0.41,-0.91,-0.03
3.0,142.06,40.81,-6.5,142.06,40.81,-6.5,-0.3,0.32,0.16,0.89,3.0,311.19,2.25,-175.13,311.19,2.25,-175.13,0.04,0.41,-0.91,-0.03
3.0,142.06,40.81,-6.44,142.06,40.81,-6.44,-0.3,0.32,0.16,0.89,3.0,311.19,2.25,-175.13,311.19,2.25,-175.13,0.04,0.41,-0.91,-0.03
3.0,142.06,40.81,-6.38,142.06,40.81,-6.38,-0.3,0.32,0.16,0.89,3.0,311.19,2.31,-175.06,311.19,2.31,-175.06,0.04,0.41,-0.91,-0.03
3.0,142.06,40.81,-6.38,142.06,40.81,-6.38,-0.3,0.32,0.16,0.89,3.0,311.19,2.44,-175.06,311.19,2.44,-175.06,0.04,0.41,-0.91,-0.03
3.0,142.06,40.75,-6.38,142.06,40.75,-6.38,-0.3,0.32,0.16,0.89,3.0,311.19,2.44,-175.06,311.19,2.44,-175.06,0.04,0.41,-0.91,-0.03
3.0,142.06,40.69,-6.38,142.06,40.69,-6.38,-0.3,0.31,0.16,0.89,3.0,311.25,2.44,-175.06,311.25,2.44,-175.06,0.04,0.41,-0.91,-0.03
3.0,142.06,40.69,-6.44,142.06,40.69,-6.44,-0.3,0.31,0.16,0.89,3.0,311.25,2.38,-175.13,311.25,2.38,-175.13,0.04,0.41,-0.91,-0.03
3.0,142.06,40.69,-6.44,142.06,40.69,-6.44,-0.3,0.31,0.16,0.89,3.0,311.25,2.31,-175.19,311.25,2.31,-175.19,0.04,0.41,-0.91,-0.03
3.0,142.06,40.69,-6.44,142.06,40.69,-6.44,-0.3,0.31,0.16,0.89,3.0,311.25,2.31,-175.19,311.25,2.31,-175.19,0.04,0.41,-0.91,-0.03
3.0,142.06,40.69,-6.5,142.06,40.69,-6.5,-0.3,0.31,0.16,0.89,3.0,311.25,2.38,-175.25,311.25,2.38,-175.25,0.04,0.41,-0.91,-0.03
3.0,142.06,40.69,-6.5,142.06,40.69,-6.5,-0.3,0.31,0.16,0.89,3.0,311.25,2.38,-175.25,311.25,2.38,-175.25,0.04,0.41,-0.91,-0.03
3.0,142.06,40.75,-6.5,142.06,40.75,-6.5,-0.3,0.32,0.16,0.89,3.0,311.25,2.38,-175.25,311.25,2.38,-175.25,0.04,0.41,-0.91,-0.03
3.0,142.06,40.81,-6.44,142.06,40.81,-6.44,-0.3,0.32,0.16,0.89,3.0,311.25,2.38,-175.25,311.25,2.38,-175.25,0.04,0.41,-0.91,-0.03
3.0,142.0,40.81,-6.5,142.0,40.81,-6.5,-0.3,0.32,0.16,0.89,3.0,311.25,2.38,-175.25,311.25,2.38,-175.25,0.04,0.41,-0.91,-0.03
3.0,142.0,40.75,-6.56,142.0,40.75,-6.56,-0.3,0.31,0.16,0.89,3.0,311.25,2.44,-175.25,311.25,2.44,-175.25,0.04,0.41,-0.91,-0.03
3.0,142.0,40.69,-6.56,142.0,40.69,-6.56,-0.3,0.31,0.16,0.89,3.0,311.25,2.44,-175.25,311.25,2.44,-175.25,0.04,0.41,-0.91,-0.03
3.0,142.0,40.69,-6.5,142.0,40.69,-6.5,-0.3,0.31,0.16,0.89,3.0,311.25,2.44,-175.25,311.25,2.44,-175.25,0.04,0.41,-0.91,-0.03
3.0,142.0,40.69,-6.56,142.0,40.69,-6.56,-0.3,0.31,0.16,0.89,3.0,311.19,2.44,-175.31,311.19,2.44,-175.31,0.04,0.41,-0.91,-0.03
3.0,142.0,40.69,-6.5,142.0,40.69,-6.5,-0.3,0.31,0.16,0.89,3.0,311.19,2.44,-175.31,311.19,2.44,-175.31,0.04,0.41,-0.91,-0.03
3.0,142.0,40.75,-6.5,142.0,40.75,-6.5,-0.3,0.31,0.16,0.89,3.0,311.19,2.44,-175.31,311.19,2.44,-175.31,0.04,0.41,-0.91,-0.03
3.0,142.0,40.75,-6.56,142.0,40.75,-6.56,-0.3,0.31,0.16,0.89,3.0,311.19,2.38,-175.31,311.19,2.38,-175.31,0.04,0.41,-0.91,-0.03
3.0,142.0,40.75,-6.5,142.0,40.75,-6.5,-0.3,0.31,0.16,0.89,3.0,311.19,2.31,-175.31,311.19,2.31,-175.31,0.04,0.41,-0.91,-0.03
3.0,142.0,40.75,-6.5,142.0,40.75,-6.5,-0.3,0.31,0.16,0.89,3.0,311.19,2.31,-175.31,311.19,2.31,-175.31,0.04,0.41,-0.91,-0.03
3.0,142.0,40.69,-6.5,142.0,40.69,-6.5,-0.3,0.31,0.16,0.89,3.0,311.25,2.38,-175.25,311.25,2.38,-175.25,0.04,0.41,-0.91,-0.03
3.0,142.06,40.81,-6.5,142.06,40.81,-6.5,-0.3,0.32,0.16,0.89,3.0,311.25,2.31,-175.25,311.25,2.31,-175.25,0.04,0.41,-0.91,-0.03
3.0,142.06,40.75,-6.56,142.06,40.75,-6.56,-0.3,0.31,0.16,0.89,3.0,311.25,2.31,-175.25,311.25,2.31,-175.25,0.04,0.41,-0.91,-0.03
3.0,142.13,40.5,-6.69,142.13,40.5,-6.69,-0.3,0.31,0.16,0.89,3.0,311.25,2.38,-175.25,311.25,2.38,-175.25,0.04,0.41,-0.91,-0.03
3.0,142.19,40.31,-6.69,142.19,40.31,-6.69,-0.3,0.31,0.16,0.89,3.0,311.25,2.38,-175.25,311.25,2.38,-175.25,0.04,0.41,-0.91,-0.03
3.0,142.25,40.19,-6.56,142.25,40.19,-6.56,-0.3,0.31,0.16,0.89,3.0,311.25,2.5,-175.25,311.25,2.5,-175.25,0.04,0.41,-0.91,-0.03
3.0,142.19,40.25,-6.5,142.19,40.25,-6.5,-0.3,0.31,0.16,0.89,3.0,311.31,2.63,-175.19,311.31,2.63,-175.19,0.04,0.41,-0.91,-0.03
3.0,142.19,40.44,-6.44,142.19,40.44,-6.44,-0.3,0.31,0.16,0.89,3.0,311.31,2.69,-175.13,311.31,2.69,-175.13,0.04,0.41,-0.91,-0.03
3.0,142.19,40.56,-6.38,142.19,40.56,-6.38,-0.3,0.31,0.16,0.89,3.0,311.31,2.81,-175.13,311.31,2.81,-175.13,0.04,0.41,-0.91,-0.03
3.0,142.19,40.56,-6.44,142.19,40.56,-6.44,-0.3,0.31,0.16,0.89,3.0,311.31,2.81,-175.13,311.31,2.81,-175.13,0.04,0.41,-0.91,-0.03
3.0,142.19,40.56,-6.44,142.19,40.56,-6.44,-0.3,0.31,0.16,0.89,3.0,311.31,2.88,-175.13,311.31,2.88,-175.13,0.04,0.41,-0.91,-0.03
3.0,142.19,40.56,-6.44,142.19,40.56,-6.44,-0.3,0.31,0.16,0.89,3.0,311.31,2.94,-175.13,311.31,2.94,-175.13,0.04,0.41,-0.91,-0.03
3.0,142.19,40.56,-6.5,142.19,40.56,-6.5,-0.3,0.31,0.16,0.89,3.0,311.31,3.06,-175.0,311.31,3.06,-175.0,0.04,0.41,-0.91,-0.03
3.0,142.13,40.63,-6.5,142.13,40.63,-6.5,-0.3,0.31,0.16,0.89,3.0,311.31,3.31,-175.0,311.31,3.31,-175.0,0.04,0.41,-0.91,-0.03
3.0,142.13,40.63,-6.44,142.13,40.63,-6.44,-0.3,0.31,0.16,0.89,3.0,311.31,3.44,-175.0,311.31,3.44,-175.0,0.05,0.41,-0.91,-0.03
3.0,142.19,40.69,-6.38,142.19,40.69,-6.38,-0.3,0.31,0.16,0.89,3.0,311.31,3.44,-175.0,311.31,3.44,-175.0,0.04,0.41,-0.91,-0.03
3.0,142.25,40.63,-6.31,142.25,40.63,-6.31,-0.3,0.31,0.15,0.89,3.0,311.31,3.25,-175.13,311.31,3.25,-175.13,0.04,0.41,-0.91,-0.03
3.0,142.25,40.56,-6.38,142.25,40.56,-6.38,-0.3,0.31,0.15,0.89,3.0,311.31,3.13,-175.13,311.31,3.13,-175.13,0.04,0.41,-0.91,-0.03
3.0,142.25,40.56,-6.38,142.25,40.56,-6.38,-0.3,0.31,0.15,0.89,3.0,311.31,3.06,-175.13,311.31,3.06,-175.13,0.04,0.41,-0.91,-0.03
3.0,142.25,40.63,-6.25,142.25,40.63,-6.25,-0.3,0.32,0.15,0.89,3.0,311.31,3.0,-175.13,311.31,3.0,-175.13,0.04,0.41,-0.91,-0.03
3.0,142.25,40.63,-6.31,142.25,40.63,-6.31,-0.3,0.31,0.16,0.89,3.0,311.31,2.94,-175.13,311.31,2.94,-175.13,0.04,0.41,-0.91,-0.03
3.0,142.25,40.56,-6.5,142.25,40.56,-6.5,-0.3,0.31,0.16,0.89,3.0,311.31,2.94,-175.13,311.31,2.94,-175.13,0.04,0.41,-0.91,-0.03
3.0,142.25,40.44,-6.63,142.25,40.44,-6.63,-0.3,0.31,0.16,0.89,3.0,311.31,2.94,-175.13,311.31,2.94,-175.13,0.04,0.41,-0.91,-0.03
3.0,142.25,40.38,-6.63,142.25,40.38,-6.63,-0.3,0.31,0.16,0.89,3.0,311.31,3.0,-175.13,311.31,3.0,-175.13,0.04,0.41,-0.91,-0.03
3.0,142.25,40.25,-6.75,142.25,40.25,-6.75,-0.3,0.31,0.16,0.89,3.0,311.31,3.06,-175.13,311.31,3.06,-175.13,0.04,0.41,-0.91,-0.03
3.0,142.25,40.31,-6.75,142.25,40.31,-6.75,-0.3,0.31,0.16,0.89,3.0,311.31,3.06,-175.06,311.31,3.06,-175.06,0.04,0.41,-0.91,-0.03
3.0,142.25,40.38,-6.75,142.25,40.38,-6.75,-0.3,0.31,0.16,0.89,3.0,311.31,3.06,-175.06,311.31,3.06,-175.06,0.04,0.41,-0.91,-0.03
3.0,142.25,40.44,-6.81,142.25,40.44,-6.81,-0.3,0.31,0.16,0.89,3.0,311.31,3.13,-175.06,311.31,3.13,-175.06,0.04,0.41,-0.91,-0.03
3.0,142.25,40.44,-6.81,142.25,40.44,-6.81,-0.3,0.31,0.16,0.89,3.0,311.31,3.06,-175.06,311.31,3.06,-175.06,0.04,0.41,-0.91,-0.03
3.0,142.25,40.5,-6.75,142.25,40.5,-6.75,-0.3,0.31,0.16,0.89,3.0,311.31,3.13,-175.13,311.31,3.13,-175.13,0.04,0.41,-0.91,-0.03
3.0,142.25,40.56,-6.63,142.25,40.56,-6.63,-0.3,0.31,0.16,0.89,3.0,311.31,3.13,-175.13,311.31,3.13,-175.13,0.04,0.41,-0.91,-0.03
3.0,142.25,40.63,-6.5,142.25,40.63,-6.5,-0.3,0.31,0.16,0.89,3.0,311.31,3.13,-175.13,311.31,3.13,-175.13,0.04,0.41,-0.91,-0.03
3.0,142.25,40.63,-6.5,142.25,40.63,-6.5,-0.3,0.31,0.16,0.89,3.0,311.31,3.13,-175.13,311.31,3.13,-175.13,0.04,0.41,-0.91,-0.03
3.0,142.25,40.56,-6.56,142.25,40.56,-6.56,-0.3,0.31,0.16,0.89,3.0,311.31,3.25,-175.06,311.31,3.25,-175.06,0.04,0.41,-0.91,-0.03
3.0,142.31,40.56,-6.44,142.31,40.56,-6.44,-0.3,0.31,0.16,0.89,3.0,311.38,3.31,-175.06,311.38,3.31,-175.06,0.04,0.41,-0.91,-0.03
3.0,142.31,40.5,-6.5,142.31,40.5,-6.5,-0.3,0.31,0.16,0.89,3.0,311.38,3.38,-175.0,311.38,3.38,-175.0,0.04,0.41,-0.91,-0.03
3.0,142.31,40.5,-6.56,142.31,40.5,-6.56,-0.3,0.31,0.16,0.89,3.0,311.38,3.38,-175.0,311.38,3.38,-175.0,0.05,0.41,-0.91,-0.03
3.0,142.31,40.5,-6.56,142.31,40.5,-6.56,-0.3,0.31,0.16,0.89,3.0,311.38,3.38,-175.0,311.38,3.38,-175.0,0.05,0.41,-0.91,-0.03
3.0,142.31,40.63,-6.44,142.31,40.63,-6.44,-0.3,0.31,0.16,0.89,3.0,311.38,3.38,-175.06,311.38,3.38,-175.06,0.05,0.41,-0.91,-0.03
3.0,142.31,40.63,-6.5,142.31,40.63,-6.5,-0.3,0.31,0.16,0.89,3.0,311.31,3.38,-175.06,311.31,3.38,-175.06,0.04,0.41,-0.91,-0.03
3.0,142.38,40.63,-6.5,142.38,40.63,-6.5,-0.3,0.31,0.16,0.89,3.0,311.31,3.38,-175.06,311.31,3.38,-175.06,0.04,0.41,-0.91,-0.03
3.0,142.38,40.69,-6.38,142.38,40.69,-6.38,-0.3,0.32,0.16,0.89,3.0,311.31,3.31,-175.13,311.31,3.31,-175.13,0.04,0.41,-0.91,-0.03
3.0,142.38,40.75,-6.38,142.38,40.75,-6.38,-0.3,0.32,0.16,0.89,3.0,311.31,3.31,-175.13,311.31,3.31,-175.13,0.04,0.41,-0.91,-0.03
3.0,142.38,40.75,-6.44,142.38,40.75,-6.44,-0.3,0.32,0.16,0.89,3.0,311.31,3.25,-175.13,311.31,3.25,-175.13,0.04,0.41,-0.91,-0.03
3.0,142.38,40.63,-6.5,142.38,40.63,-6.5,-0.3,0.31,0.16,0.89,3.0,311.31,3.25,-175.13,311.31,3.25,-175.13,0.04,0.41,-0.91,-0.03
3.0,142.38,40.5,-6.5,142.38,40.5,-6.5,-0.3,0.31,0.16,0.89,3.0,311.25,3.13,-175.19,311.25,3.13,-175.19,0.04,0.41,-0.91,-0.03
3.0,142.38,40.5,-6.5,142.38,40.5,-6.5,-0.3,0.31,0.16,0.89,3.0,311.25,3.06,-175.25,311.25,3.06,-175.25,0.04,0.41,-0.91,-0.03
3.0,142.38,40.44,-6.5,142.38,40.44,-6.5,-0.3,0.31,0.16,0.89,3.0,311.19,3.0,-175.31,311.19,3.0,-175.31,0.04,0.41,-0.91,-0.03
3.0,142.38,40.5,-6.44,142.38,40.5,-6.44,-0.3,0.31,0.15,0.89,3.0,311.13,2.88,-175.38,311.13,2.88,-175.38,0.04,0.41,-0.91,-0.03
3.0,142.38,40.63,-6.38,142.38,40.63,-6.38,-0.3,0.31,0.15,0.89,3.0,311.06,2.81,-175.5,311.06,2.81,-175.5,0.04,0.41,-0.91,-0.03
3.0,142.38,40.69,-6.31,142.38,40.69,-6.31,-0.3,0.32,0.15,0.89,3.0,311.06,2.81,-175.5,311.06,2.81,-175.5,0.04,0.41,-0.91,-0.03
3.0,142.38,40.75,-6.25,142.38,40.75,-6.25,-0.3,0.32,0.15,0.89,3.0,311.06,2.81,-175.5,311.06,2.81,-175.5,0.04,0.41,-0.91,-0.03
3.0,142.38,40.75,-6.19,142.38,40.75,-6.19,-0.3,0.32,0.15,0.89,3.0,311.06,2.81,-175.5,311.06,2.81,-175.5,0.04,0.41,-0.91,-0.03
3.0,142.38,40.75,-6.19,142.38,40.75,-6.19,-0.3,0.32,0.15,0.89,3.0,311.0,2.88,-175.5,311.0,2.88,-175.5,0.04,0.41,-0.91,-0.02
3.0,142.38,40.69,-6.25,142.38,40.69,-6.25,-0.3,0.32,0.15,0.89,3.0,311.0,2.94,-175.5,311.0,2.94,-175.5,0.04,0.41,-0.91,-0.02
3.0,142.38,40.63,-6.25,142.38,40.63,-6.25,-0.3,0.31,0.15,0.89,3.0,311.0,3.0,-175.5,311.0,3.0,-175.5,0.04,0.41,-0.91,-0.02
3.0,142.38,40.63,-6.25,142.38,40.63,-6.25,-0.3,0.31,0.15,0.89,3.0,311.0,3.0,-175.5,311.0,3.0,-175.5,0.04,0.41,-0.91,-0.02
3.0,142.38,40.63,-6.25,142.38,40.63,-6.25,-0.3,0.32,0.15,0.89,3.0,311.06,2.94,-175.44,311.06,2.94,-175.44,0.04,0.41,-0.91,-0.03
3.0,142.31,40.63,-6.31,142.31,40.63,-6.31,-0.3,0.31,0.15,0.89,3.0,311.06,2.94,-175.38,311.06,2.94,-175.38,0.04,0.41,-0.91,-0.03
3.0,142.31,40.56,-6.31,142.31,40.56,-6.31,-0.3,0.31,0.15,0.89,3.0,311.06,2.94,-175.38,311.06,2.94,-175.38,0.04,0.41,-0.91,-0.03
3.0,142.38,40.56,-6.25,142.38,40.56,-6.25,-0.3,0.31,0.15,0.89,3.0,311.06,2.88,-175.44,311.06,2.88,-175.44,0.04,0.41,-0.91,-0.03
3.0,142.38,40.63,-6.25,142.38,40.63,-6.25,-0.3,0.31,0.15,0.89,3.0,311.0,2.88,-175.44,311.0,2.88,-175.44,0.04,0.41,-0.91,-0.03
3.0,142.38,40.69,-6.31,142.38,40.69,-6.31,-0.3,0.32,0.16,0.89,3.0,311.0,2.88,-175.44,311.0,2.88,-175.44,0.04,0.41,-0.91,-0.03
3.0,142.31,40.63,-6.56,142.31,40.63,-6.56,-0.3,0.31,0.16,0.89,3.0,311.0,2.94,-175.44,311.0,2.94,-175.44,0.04,0.41,-0.91,-0.02
3.0,142.31,40.44,-6.94,142.31,40.44,-6.94,-0.3,0.31,0.16,0.89,3.0,311.0,2.94,-175.44,311.0,2.94,-175.44,0.04,0.41,-0.91,-0.03
3.0,142.31,40.19,-7.38,142.31,40.19,-7.38,-0.3,0.31,0.16,0.89,3.0,311.0,2.94,-175.44,311.0,2.94,-175.44,0.04,0.41,-0.91,-0.03
3.0,142.31,39.88,-7.88,142.31,39.88,-7.88,-0.3,0.3,0.16,0.89,3.0,311.0,3.0,-175.38,311.0,3.0,-175.38,0.04,0.41,-0.91,-0.03
3.0,142.25,39.69,-8.19,142.25,39.69,-8.19,-0.3,0.3,0.17,0.89,3.0,311.0,3.0,-175.44,311.0,3.0,-175.44,0.04,0.41,-0.91,-0.03
3.0,142.13,39.75,-8.31,142.13,39.75,-8.31,-0.3,0.3,0.17,0.89,3.0,311.0,3.0,-175.44,311.0,3.0,-175.44,0.04,0.41,-0.91,-0.03
3.0,142.0,39.94,-8.5,142.0,39.94,-8.5,-0.3,0.3,0.17,0.89,3.0,310.94,3.19,-175.38,310.94,3.19,-175.38,0.04,0.41,-0.91,-0.02
3.0,141.88,40.38,-8.25,141.88,40.38,-8.25,-0.31,0.31,0.17,0.89,3.0,311.0,3.38,-175.25,311.0,3.38,-175.25,0.04,0.41,-0.91,-0.02
3.0,141.81,40.69,-7.88,141.81,40.69,-7.88,-0.31,0.31,0.17,0.88,3.0,310.94,3.44,-175.31,310.94,3.44,-175.31,0.04,0.41,-0.91,-0.02
3.0,141.75,41.0,-7.63,141.75,41.0,-7.63,-0.31,0.31,0.17,0.88,3.0,310.88,3.5,-175.38,310.88,3.5,-175.38,0.04,0.42,-0.91,-0.02
3.0,141.75,41.19,-7.88,141.75,41.19,-7.88,-0.31,0.32,0.17,0.88,3.0,310.81,3.56,-175.44,310.81,3.56,-175.44,0.04,0.42,-0.91,-0.02
3.0,141.69,41.38,-7.88,141.69,41.38,-7.88,-0.31,0.32,0.17,0.88,3.0,310.81,3.44,-175.5,310.81,3.44,-175.5,0.04,0.42,-0.91,-0.02
3.0,141.5,41.75,-7.25,141.5,41.75,-7.25,-0.31,0.32,0.16,0.88,3.0,310.81,3.31,-175.56,310.81,3.31,-175.56,0.04,0.42,-0.91,-0.02
3.0,141.25,42.25,-6.5,141.25,42.25,-6.5,-0.31,0.33,0.16,0.88,3.0,310.75,3.19,-175.63,310.75,3.19,-175.63,0.04,0.42,-0.91,-0.02
3.0,141.13,42.56,-6.31,141.13,42.56,-6.31,-0.31,0.33,0.16,0.88,3.0,310.69,3.19,-175.69,310.69,3.19,-175.69,0.04,0.42,-0.91,-0.02
3.0,141.19,42.63,-6.25,141.19,42.63,-6.25,-0.31,0.33,0.16,0.88,3.0,310.63,3.06,-175.81,310.63,3.06,-175.81,0.04,0.42,-0.91,-0.02
3.0,141.19,42.56,-6.25,141.19,42.56,-6.25,-0.31,0.33,0.16,0.88,3.0,310.63,3.13,-175.75,310.63,3.13,-175.75,0.04,0.42,-0.91,-0.02
3.0,141.13,42.44,-6.44,141.13,42.44,-6.44,-0.31,0.33,0.16,0.88,3.0,310.56,3.19,-175.75,310.56,3.19,-175.75,0.04,0.42,-0.91,-0.02
3.0,141.13,42.31,-6.63,141.13,42.31,-6.63,-0.31,0.33,0.16,0.88,3.0,310.56,3.06,-175.75,310.56,3.06,-175.75,0.04,0.42,-0.91,-0.02
3.0,141.06,42.19,-6.81,141.06,42.19,-6.81,-0.31,0.32,0.17,0.88,3.0,310.5,2.94,-175.88,310.5,2.94,-175.88,0.04,0.42,-0.91,-0.02
3.0,141.0,42.13,-7.19,141.0,42.13,-7.19,-0.31,0.32,0.17,0.88,3.0,310.44,2.88,-175.88,310.44,2.88,-175.88,0.04,0.42,-0.91,-0.02
3.0,140.88,42.13,-7.63,140.88,42.13,-7.63,-0.31,0.32,0.17,0.88,3.0,310.44,2.75,-175.94,310.44,2.75,-175.94,0.04,0.42,-0.91,-0.02
3.0,140.81,42.0,-7.94,140.81,42.0,-7.94,-0.31,0.32,0.17,0.88,3.0,310.44,2.63,-175.94,310.44,2.63,-175.94,0.04,0.42,-0.91,-0.02
3.0,140.94,41.63,-8.13,140.94,41.63,-8.13,-0.31,0.32,0.17,0.88,3.0,310.38,2.63,-175.94,310.38,2.63,-175.94,0.04,0.42,-0.91,-0.02
3.0,141.13,41.13,-8.5,141.13,41.13,-8.5,-0.31,0.31,0.17,0.88,3.0,310.38,2.63,-175.94,310.38,2.63,-175.94,0.04,0.42,-0.91,-0.02
3.0,141.31,40.56,-8.94,141.31,40.56,-8.94,-0.31,0.31,0.17,0.88,3.0,310.38,2.63,-175.94,310.38,2.63,-175.94,0.04,0.42,-0.91,-0.02
3.0,141.38,40.25,-9.13,141.38,40.25,-9.13,-0.31,0.3,0.18,0.88,3.0,310.38,2.69,-175.94,310.38,2.69,-175.94,0.04,0.42,-0.91,-0.02
3.0,141.44,39.94,-9.19,141.44,39.94,-9.19,-0.31,0.3,0.17,0.88,3.0,310.44,2.75,-175.88,310.44,2.75,-175.88,0.04,0.42,-0.91,-0.02
3.0,141.5,39.81,-9.25,141.5,39.81,-9.25,-0.31,0.3,0.17,0.89,3.0,310.38,2.75,-175.94,310.38,2.75,-175.94,0.04,0.42,-0.91,-0.02
3.0,141.56,39.69,-9.38,141.56,39.69,-9.38,-0.31,0.3,0.18,0.89,3.0,310.31,2.75,-176.0,310.31,2.75,-176.0,0.04,0.42,-0.91,-0.02
3.0,141.63,39.56,-9.63,141.63,39.56,-9.63,-0.31,0.3,0.18,0.89,3.0,310.38,2.75,-175.94,310.38,2.75,-175.94,0.04,0.42,-0.91,-0.02
3.0,141.69,39.44,-9.88,141.69,39.44,-9.88,-0.31,0.3,0.18,0.89,3.0,310.44,2.69,-175.94,310.44,2.69,-175.94,0.04,0.42,-0.91,-0.02
3.0,141.75,39.25,-10.06,141.75,39.25,-10.06,-0.31,0.29,0.18,0.89,3.0,310.44,2.63,-175.94,310.44,2.63,-175.94,0.04,0.42,-0.91,-0.02
3.0,141.81,39.06,-10.25,141.81,39.06,-10.25,-0.31,0.29,0.18,0.89,3.0,310.44,2.75,-175.81,310.44,2.75,-175.81,0.04,0.42,-0.91,-0.02
3.0,141.88,39.0,-10.19,141.88,39.0,-10.19,-0.31,0.29,0.18,0.89,3.0,310.5,2.81,-175.81,310.5,2.81,-175.81,0.04,0.42,-0.91,-0.02
3.0,141.94,39.06,-10.06,141.94,39.06,-10.06,-0.31,0.29,0.18,0.89,3.0,310.5,2.81,-175.75,310.5,2.81,-175.75,0.04,0.42,-0.91,-0.02
3.0,141.94,39.13,-10.13,141.94,39.13,-10.13,-0.31,0.29,0.18,0.89,3.0,310.5,2.88,-175.75,310.5,2.88,-175.75,0.04,0.42,-0.91,-0.02
3.0,141.88,39.13,-10.19,141.88,39.13,-10.19,-0.31,0.29,0.18,0.89,3.0,310.56,2.88,-175.69,310.56,2.88,-175.69,0.04,0.42,-0.91,-0.02
3.0,141.88,39.13,-10.19,141.88,39.13,-10.19,-0.31,0.29,0.18,0.89,3.0,310.63,3.0,-175.63,310.63,3.0,-175.63,0.04,0.42,-0.91,-0.02
