Calibration_1,AccX_1,AccY_1,AccZ_1,Roll_1,Pitch_1,Yaw_1,QuatW_1,QuatX_1,QuatY_1,QuatZ_1,Calibration_2,AccX_2,AccY_2,AccZ_2,Roll_2,Pitch_2,Yaw_2,QuatW_2,QuatX_2,QuatY_2,QuatZ_2
0.0,85.25,26.56,153.19,85.25,26.56,153.19,0.32,-0.64,-0.7,-0.0,0.0,0.0,0.0,0.0,0.0,0.0,0.0,0.0,0.0,0.0,0.0
0.0,85.25,26.62,153.13,85.25,26.62,153.13,0.32,-0.64,-0.7,-0.0,0.0,0.0,0.0,0.0,0.0,0.0,0.0,1.0,-0.0,0.0,-0.0
0.0,85.25,26.62,153.19,85.25,26.62,153.19,0.32,-0.64,-0.7,-0.0,0.0,359.88,-0.12,0.0,359.88,-0.12,0.0,1.0,-0.0,0.0,0.0
0.0,85.19,26.56,153.19,85.19,26.56,153.19,0.32,-0.64,-0.7,-0.0,0.0,0.0,-0.06,0.0,0.0,-0.06,0.0,1.0,0.0,0.0,-0.0
0.0,85.19,26.56,153.19,85.19,26.56,153.19,0.32,-0.64,-0.7,-0.0,0.0,0.0,-0.06,0.0,0.0,-0.06,0.0,1.0,-0.0,0.0,-0.0
0.0,85.25,26.56,153.19,85.25,26.56,153.19,0.32,-0.64,-0.7,-0.0,0.0,359.94,46.25,4.19,359.94,46.25,4.19,0.92,-0.03,-0.39,0.0
0.0,85.19,26.56,153.19,85.19,26.56,153.19,0.32,-0.64,-0.7,-0.0,0.0,359.94,46.25,4.19,359.94,46.25,4.19,0.92,-0.03,-0.39,0.0
0.0,85.19,26.56,153.13,85.19,26.56,153.13,0.32,-0.64,-0.7,-0.0,0.0,359.94,46.19,4.19,359.94,46.19,4.19,0.92,-0.03,-0.39,0.0
0.0,85.25,26.5,153.13,85.25,26.5,153.13,0.32,-0.64,-0.7,-0.0,0.0,359.94,46.25,4.19,359.94,46.25,4.19,0.92,-0.03,-0.39,0.0
0.0,85.25,26.56,153.13,85.25,26.56,153.13,0.32,-0.64,-0.7,-0.0,0.0,0.0,46.19,4.13,0.0,46.19,4.13,0.92,-0.03,-0.39,-0.0
0.0,85.25,26.44,153.13,85.25,26.44,153.13,0.32,-0.64,-0.7,-0.0,0.0,359.94,46.13,4.19,359.94,46.13,4.19,0.92,-0.03,-0.39,0.0
0.0,85.25,26.44,153.13,85.25,26.44,153.13,0.32,-0.64,-0.7,-0.0,0.0,359.94,46.13,4.19,359.94,46.13,4.19,0.92,-0.03,-0.39,0.0
0.0,85.25,26.44,153.19,85.25,26.44,153.19,0.32,-0.64,-0.7,-0.0,0.0,359.94,46.13,4.25,359.94,46.13,4.25,0.92,-0.03,-0.39,0.0
0.0,85.25,26.44,153.13,85.25,26.44,153.13,0.32,-0.64,-0.7,-0.0,0.0,359.94,46.13,4.25,359.94,46.13,4.25,0.92,-0.03,-0.39,0.0
0.0,85.19,26.44,153.19,85.19,26.44,153.19,0.32,-0.64,-0.7,-0.0,0.0,359.88,46.13,4.25,359.88,46.13,4.25,0.92,-0.03,-0.39,0.0
0.0,85.19,26.44,153.13,85.19,26.44,153.13,0.32,-0.64,-0.7,-0.0,0.0,359.88,46.13,4.25,359.88,46.13,4.25,0.92,-0.03,-0.39,0.0
0.0,85.19,26.44,153.13,85.19,26.44,153.13,0.32,-0.64,-0.7,-0.0,0.0,359.94,46.19,4.19,359.94,46.19,4.19,0.92,-0.03,-0.39,0.0
0.0,85.19,26.37,153.19,85.19,26.37,153.19,0.32,-0.64,-0.7,-0.0,0.0,359.94,46.06,4.25,359.94,46.06,4.25,0.92,-0.03,-0.39,0.0
0.0,85.19,26.37,153.19,85.19,26.37,153.19,0.32,-0.64,-0.7,-0.0,0.0,359.94,46.06,4.25,359.94,46.06,4.25,0.92,-0.03,-0.39,0.0
0.0,85.19,26.37,153.25,85.19,26.37,153.25,0.32,-0.64,-0.7,-0.0,0.0,359.94,46.19,4.19,359.94,46.19,4.19,0.92,-0.03,-0.39,0.0
0.0,85.12,26.44,153.25,85.12,26.44,153.25,0.32,-0.64,-0.7,-0.0,0.0,359.94,46.13,4.19,359.94,46.13,4.19,0.92,-0.03,-0.39,0.0
0.0,85.19,26.44,153.25,85.19,26.44,153.25,0.32,-0.64,-0.7,-0.0,0.0,0.0,46.19,4.19,0.0,46.19,4.19,0.92,-0.03,-0.39,-0.0
0.0,85.19,26.44,153.25,85.19,26.44,153.25,0.32,-0.64,-0.7,-0.0,0.0,0.0,46.19,4.13,0.0,46.19,4.13,0.92,-0.03,-0.39,-0.0
0.0,85.19,26.37,153.19,85.19,26.37,153.19,0.32,-0.64,-0.7,-0.0,0.0,0.0,46.0,4.31,0.0,46.0,4.31,0.92,-0.03,-0.39,-0.0
0.0,85.19,26.37,153.19,85.19,26.37,153.19,0.32,-0.64,-0.7,-0.0,0.0,0.06,46.19,4.19,0.06,46.19,4.19,0.92,-0.03,-0.39,-0.0
0.0,85.31,26.5,153.13,85.31,26.5,153.13,0.32,-0.64,-0.7,-0.0,0.0,0.06,46.13,4.31,0.06,46.13,4.31,0.92,-0.03,-0.39,-0.0
0.0,85.44,26.94,152.94,85.44,26.94,152.94,0.32,-0.64,-0.7,-0.01,0.0,0.06,46.31,4.31,0.06,46.31,4.31,0.92,-0.03,-0.39,-0.0
0.0,85.81,27.25,152.63,85.81,27.25,152.63,0.32,-0.64,-0.69,-0.01,0.0,0.06,46.44,4.31,0.06,46.44,4.31,0.92,-0.03,-0.39,-0.0
0.0,85.94,27.56,152.31,85.94,27.56,152.31,0.33,-0.64,-0.69,-0.01,0.0,359.44,46.63,4.88,359.44,46.63,4.88,0.92,-0.03,-0.4,0.0
0.0,86.81,28.06,151.19,86.81,28.06,151.19,0.34,-0.65,-0.68,-0.01,0.0,359.0,47.44,5.31,359.0,47.44,5.31,0.91,-0.03,-0.41,0.01
0.0,88.25,29.44,149.06,88.25,29.44,149.06,0.37,-0.65,-0.67,-0.01,0.0,358.06,47.63,6.63,358.06,47.63,6.63,0.91,-0.04,-0.4,0.02
0.0,7.0,32.5,146.81,7.0,32.5,146.81,0.39,-0.65,-0.66,-0.03,0.0,356.81,47.25,7.81,356.81,47.25,7.81,0.91,-0.03,-0.4,0.02
0.0,13.19,35.5,146.31,13.19,35.5,146.31,0.41,-0.64,-0.65,-0.04,0.0,356.56,48.5,6.19,356.56,48.5,6.19,0.91,-0.03,-0.42,0.03
0.0,9.63,35.81,143.88,9.63,35.81,143.88,0.42,-0.63,-0.65,-0.04,0.0,356.63,50.69,9.56,356.63,50.69,9.56,0.9,-0.05,-0.44,0.03
0.0,10.31,36.31,143.63,10.31,36.31,143.63,0.42,-0.63,-0.65,-0.04,0.0,356.63,52.69,11.06,356.63,52.69,11.06,0.89,-0.06,-0.45,0.02
0.0,9.06,36.56,142.69,9.06,36.56,142.69,0.42,-0.62,-0.65,-0.03,0.0,357.38,54.06,13.06,357.38,54.06,13.06,0.88,-0.07,-0.46,0.02
0.0,8.69,36.31,142.94,8.69,36.31,142.94,0.42,-0.63,-0.66,-0.03,0.0,358.19,54.5,14.63,358.19,54.5,14.63,0.88,-0.08,-0.46,0.01
0.0,9.13,36.19,143.88,9.13,36.19,143.88,0.42,-0.62,-0.66,-0.03,0.0,359.63,54.38,15.31,359.63,54.38,15.31,0.88,-0.09,-0.46,0.0
0.0,13.69,36.56,147.31,13.69,36.56,147.31,0.4,-0.62,-0.67,-0.05,0.0,1.19,54.75,13.25,1.19,54.75,13.25,0.88,-0.08,-0.46,-0.01
0.0,86.56,37.0,154.44,86.56,37.0,154.44,0.36,-0.64,-0.67,-0.09,0.0,1.75,55.38,12.38,1.75,55.38,12.38,0.88,-0.08,-0.47,-0.02
0.0,87.25,37.13,158.94,87.25,37.13,158.94,0.33,-0.64,-0.68,-0.12,0.0,4.0,56.88,11.81,4.0,56.88,11.81,0.87,-0.08,-0.48,-0.04
0.0,84.81,38.56,165.5,84.81,38.56,165.5,0.3,-0.63,-0.7,-0.17,0.0,7.81,57.94,6.31,7.81,57.94,6.31,0.87,-0.06,-0.48,-0.07
0.0,83.31,39.69,175.5,83.31,39.69,175.5,0.26,-0.63,-0.7,-0.22,0.0,11.69,58.19,0.75,11.69,58.19,0.75,0.87,-0.05,-0.48,-0.1
0.0,88.5,38.25,-175.5,88.5,38.25,-175.5,0.19,-0.67,-0.66,-0.27,0.0,15.06,57.0,-2.5,15.06,57.0,-2.5,0.87,-0.04,-0.48,-0.12
0.0,92.31,39.44,-162.0,92.31,39.44,-162.0,0.12,-0.67,-0.64,-0.36,0.0,17.75,57.06,-8.5,17.75,57.06,-8.5,0.87,-0.03,-0.48,-0.14
0.0,156.75,39.88,-149.13,156.75,39.88,-149.13,0.08,-0.66,-0.61,-0.43,0.0,20.56,56.69,-11.0,20.56,56.69,-11.0,0.86,-0.02,-0.48,-0.18
0.0,166.75,42.75,-135.88,166.75,42.75,-135.88,0.04,-0.62,-0.6,-0.51,0.0,28.19,53.56,-20.94,28.19,53.56,-20.94,0.86,0.03,-0.46,-0.23
0.0,174.5,44.63,-121.44,174.5,44.63,-121.44,0.02,-0.6,-0.55,-0.58,0.0,28.0,43.94,-26.19,28.0,43.94,-26.19,0.89,0.1,-0.4,-0.2
0.0,177.38,46.69,-109.56,177.38,46.69,-109.56,0.01,-0.56,-0.53,-0.64,0.0,19.62,39.81,-29.25,19.62,39.81,-29.25,0.9,0.16,-0.38,-0.15
0.0,181.5,44.13,-98.5,181.5,44.13,-98.5,-0.01,-0.52,-0.52,-0.67,0.0,20.37,39.75,-37.0,20.37,39.75,-37.0,0.88,0.2,-0.4,-0.17
0.0,181.81,44.63,-96.81,181.81,44.63,-96.81,-0.01,-0.53,-0.5,-0.68,0.0,25.44,38.63,-44.63,25.44,38.63,-44.63,0.85,0.24,-0.42,-0.2
0.0,183.63,45.94,-93.12,183.63,45.94,-93.12,-0.03,-0.53,-0.48,-0.7,0.0,27.5,35.94,-50.88,27.5,35.94,-50.88,0.84,0.27,-0.41,-0.21
0.0,188.25,44.06,-91.94,188.25,44.06,-91.94,-0.06,-0.54,-0.47,-0.69,0.0,26.69,34.69,-56.0,26.69,34.69,-56.0,0.82,0.32,-0.42,-0.2
0.0,189.75,46.88,-97.12,189.75,46.88,-97.12,-0.05,-0.6,-0.45,-0.66,0.0,26.69,34.75,-61.44,26.69,34.75,-61.44,0.81,0.34,-0.43,-0.19
0.0,187.44,49.13,-107.62,187.44,49.13,-107.62,-0.04,-0.64,-0.46,-0.62,0.0,23.87,34.69,-62.56,23.87,34.69,-62.56,0.81,0.36,-0.43,-0.17
0.0,187.63,46.5,-115.56,187.63,46.5,-115.56,-0.04,-0.65,-0.49,-0.58,0.0,17.94,35.19,-59.94,17.94,35.19,-59.94,0.83,0.36,-0.41,-0.13
0.0,189.0,44.75,-121.0,189.0,44.75,-121.0,-0.04,-0.67,-0.49,-0.55,0.0,17.0,35.31,-60.63,17.0,35.31,-60.63,0.83,0.37,-0.41,-0.12
0.0,186.13,44.0,-127.75,186.13,44.0,-127.75,-0.02,-0.69,-0.51,-0.52,0.0,18.37,33.38,-61.25,18.37,33.38,-61.25,0.83,0.38,-0.39,-0.13
0.0,183.44,41.63,-133.56,183.44,41.63,-133.56,-0.01,-0.7,-0.53,-0.48,0.0,12.25,33.31,-60.94,12.25,33.31,-60.94,0.83,0.4,-0.37,-0.09
0.0,181.88,41.0,-137.5,181.88,41.0,-137.5,-0.01,-0.71,-0.53,-0.47,0.0,0.37,37.19,-60.63,0.37,37.19,-60.63,0.83,0.42,-0.36,-0.0
0.0,180.75,40.94,-138.31,180.75,40.94,-138.31,0.0,-0.7,-0.54,-0.47,0.0,354.44,39.69,-60.38,354.44,39.69,-60.38,0.83,0.42,-0.36,0.04
0.0,177.06,41.63,-138.44,177.06,41.63,-138.44,0.02,-0.69,-0.55,-0.47,0.0,356.69,39.06,-60.88,356.69,39.06,-60.88,0.83,0.42,-0.37,0.02
0.0,174.38,42.38,-136.25,174.38,42.38,-136.25,0.03,-0.67,-0.56,-0.49,0.0,356.44,38.94,-62.81,356.44,38.94,-62.81,0.82,0.43,-0.37,0.03
0.0,172.06,44.63,-134.5,172.06,44.63,-134.5,0.04,-0.66,-0.55,-0.51,0.0,354.5,38.44,-64.56,354.5,38.44,-64.56,0.82,0.45,-0.36,0.04
0.0,169.0,46.0,-131.31,169.0,46.0,-131.31,0.05,-0.63,-0.57,-0.52,0.0,356.13,37.0,-66.56,356.13,37.0,-66.56,0.81,0.46,-0.36,0.03
0.0,165.38,47.25,-126.94,165.38,47.25,-126.94,0.08,-0.59,-0.58,-0.55,0.0,1.88,34.13,-69.56,1.88,34.13,-69.56,0.8,0.48,-0.36,-0.01
0.0,160.0,49.44,-121.19,160.0,49.44,-121.19,0.11,-0.55,-0.59,-0.58,0.0,6.44,32.0,-71.62,6.44,32.0,-71.62,0.79,0.49,-0.36,-0.04
0.0,159.44,50.44,-110.44,159.44,50.44,-110.44,0.12,-0.52,-0.57,-0.63,0.0,6.63,31.56,-73.06,6.63,31.56,-73.06,0.79,0.5,-0.36,-0.05
0.0,155.81,53.06,-98.69,155.81,53.06,-98.69,0.14,-0.46,-0.56,-0.68,0.0,5.69,30.62,-76.69,5.69,30.62,-76.69,0.77,0.52,-0.36,-0.04
0.0,155.94,48.25,-84.31,155.94,48.25,-84.31,0.16,-0.39,-0.54,-0.73,0.0,5.94,29.81,-81.25,5.94,29.81,-81.25,0.75,0.55,-0.36,-0.04
0.0,154.88,48.31,-72.69,154.88,48.31,-72.69,0.18,-0.38,-0.49,-0.76,0.0,2.38,30.87,-84.62,2.38,30.87,-84.62,0.73,0.57,-0.36,-0.02
0.0,150.5,49.81,-66.31,150.5,49.81,-66.31,0.2,-0.37,-0.48,-0.77,0.0,358.5,32.13,-84.62,358.5,32.13,-84.62,0.74,0.58,-0.35,0.02
0.0,148.25,47.06,-63.63,148.25,47.06,-63.63,0.22,-0.32,-0.49,-0.78,0.0,354.63,31.87,-84.0,354.63,31.87,-84.0,0.74,0.59,-0.32,0.04
0.0,147.81,43.69,-61.88,147.81,43.69,-61.88,0.23,-0.3,-0.49,-0.79,0.0,353.06,31.06,-84.19,353.06,31.06,-84.19,0.74,0.6,-0.31,0.05
0.0,146.19,42.94,-61.31,146.19,42.94,-61.31,0.24,-0.28,-0.5,-0.78,0.0,352.94,30.75,-83.06,352.94,30.75,-83.06,0.75,0.59,-0.31,0.04
0.0,145.38,41.25,-65.62,145.38,41.25,-65.62,0.24,-0.26,-0.54,-0.77,0.0,353.38,30.69,-79.31,353.38,30.69,-79.31,0.77,0.56,-0.3,0.05
0.0,145.31,41.63,-71.94,145.31,41.63,-71.94,0.23,-0.28,-0.57,-0.74,0.0,352.81,31.0,-72.94,352.81,31.0,-72.94,0.8,0.52,-0.29,0.05
0.0,143.25,47.0,-81.25,143.25,47.0,-81.25,0.23,-0.34,-0.6,-0.69,0.0,352.56,30.06,-65.94,352.56,30.06,-65.94,0.83,0.49,-0.27,0.05
0.0,143.25,47.06,-92.56,143.25,47.06,-92.56,0.21,-0.34,-0.65,-0.65,0.0,352.31,29.37,-60.88,352.31,29.37,-60.88,0.85,0.46,-0.26,0.05
0.0,145.69,44.88,-103.12,145.69,44.88,-103.12,0.19,-0.39,-0.67,-0.6,0.0,353.13,28.5,-58.19,353.13,28.5,-58.19,0.86,0.45,-0.25,0.05
0.0,143.5,49.13,-113.5,143.5,49.13,-113.5,0.18,-0.43,-0.67,-0.58,0.0,353.75,27.69,-57.06,353.75,27.69,-57.06,0.86,0.45,-0.24,0.05
0.0,148.31,44.56,-112.87,148.31,44.56,-112.87,0.16,-0.41,-0.69,-0.58,0.0,354.5,26.94,-56.13,354.5,26.94,-56.13,0.87,0.43,-0.24,0.04
0.0,150.31,43.25,-116.69,150.31,43.25,-116.69,0.15,-0.44,-0.69,-0.55,0.0,355.88,26.56,-54.25,355.88,26.56,-54.25,0.87,0.42,-0.24,0.03
0.0,150.25,44.06,-121.94,150.25,44.06,-121.94,0.14,-0.46,-0.69,-0.54,0.0,355.81,26.75,-53.5,355.81,26.75,-53.5,0.88,0.42,-0.24,0.03
0.0,152.63,42.13,-121.37,152.63,42.13,-121.37,0.13,-0.45,-0.7,-0.54,0.0,356.31,26.56,-52.13,356.31,26.56,-52.13,0.88,0.4,-0.24,0.02
0.0,154.5,41.31,-120.06,154.5,41.31,-120.06,0.12,-0.45,-0.7,-0.55,0.0,359.44,26.75,-51.31,359.44,26.75,-51.31,0.88,0.39,-0.26,-0.0
0.0,156.38,41.56,-119.75,156.38,41.56,-119.75,0.11,-0.47,-0.68,-0.55,0.0,1.25,27.06,-51.38,1.25,27.06,-51.38,0.88,0.39,-0.27,-0.01
0.0,157.06,41.56,-118.56,157.06,41.56,-118.56,0.11,-0.45,-0.69,-0.56,0.0,3.63,27.06,-51.94,3.63,27.06,-51.94,0.88,0.39,-0.28,-0.04
0.0,158.06,40.63,-115.37,158.06,40.63,-115.37,0.11,-0.43,-0.68,-0.58,0.0,10.25,27.06,-54.19,10.25,27.06,-54.19,0.86,0.39,-0.31,-0.1
0.0,159.44,40.88,-112.87,159.44,40.88,-112.87,0.11,-0.44,-0.67,-0.59,0.0,18.75,26.56,-57.38,18.75,26.56,-57.38,0.84,0.39,-0.34,-0.15
0.0,159.94,41.75,-110.69,159.94,41.75,-110.69,0.11,-0.43,-0.66,-0.6,0.0,23.44,26.44,-59.75,23.44,26.44,-59.75,0.83,0.39,-0.36,-0.18
0.0,160.56,40.88,-106.94,160.56,40.88,-106.94,0.1,-0.41,-0.66,-0.62,0.0,164.25,26.87,-62.25,164.25,26.87,-62.25,0.1,-0.21,-0.51,-0.83
0.0,160.75,41.25,-102.31,160.75,41.25,-102.31,0.11,-0.4,-0.64,-0.65,0.0,168.06,27.5,-66.94,168.06,27.5,-66.94,0.08,-0.24,-0.53,-0.81
0.0,160.38,41.88,-96.75,160.38,41.88,-96.75,0.12,-0.39,-0.62,-0.68,0.0,169.31,29.0,-73.0,169.31,29.0,-73.0,0.07,-0.27,-0.56,-0.78
0.0,161.13,42.06,-89.87,161.13,42.06,-89.87,0.11,-0.38,-0.58,-0.71,0.0,168.75,32.19,-80.62,168.75,32.19,-80.62,0.08,-0.32,-0.6,-0.73
0.0,163.63,42.19,-82.81,163.63,42.19,-82.81,0.1,-0.38,-0.54,-0.74,0.0,164.63,37.06,-90.5,164.63,37.06,-90.5,0.1,-0.36,-0.63,-0.68
0.0,166.88,42.5,-77.44,166.88,42.5,-77.44,0.08,-0.39,-0.51,-0.76,0.0,162.94,38.63,-100.06,162.94,38.63,-100.06,0.1,-0.39,-0.66,-0.64
0.0,170.31,42.75,-74.87,170.31,42.75,-74.87,0.05,-0.4,-0.49,-0.77,0.0,161.88,39.25,-104.44,161.88,39.25,-104.44,0.1,-0.4,-0.66,-0.62
0.0,178.63,40.31,-75.5,178.63,40.31,-75.5,-0.0,-0.43,-0.48,-0.77,0.0,162.5,39.06,-105.5,162.5,39.06,-105.5,0.09,-0.41,-0.66,-0.62
0.0,181.31,45.94,-80.69,181.31,45.94,-80.69,-0.01,-0.51,-0.45,-0.73,0.0,167.63,37.06,-104.06,167.63,37.06,-104.06,0.06,-0.4,-0.65,-0.64
0.0,182.56,47.75,-88.31,182.56,47.75,-88.31,-0.02,-0.53,-0.48,-0.7,0.0,168.69,37.44,-95.75,168.69,37.44,-95.75,0.07,-0.39,-0.62,-0.68
0.0,186.13,42.44,-96.94,186.13,42.44,-96.94,-0.03,-0.54,-0.52,-0.66,0.0,166.5,38.38,-89.31,166.5,38.38,-89.31,0.09,-0.36,-0.59,-0.72
0.0,185.0,43.5,-107.56,185.0,43.5,-107.56,-0.02,-0.59,-0.53,-0.61,0.0,164.81,38.38,-79.56,164.81,38.38,-79.56,0.1,-0.33,-0.55,-0.76
0.0,184.31,43.44,-115.19,184.31,43.44,-115.19,-0.02,-0.61,-0.54,-0.58,0.0,164.44,36.56,-72.0,164.44,36.56,-72.0,0.11,-0.3,-0.52,-0.79
0.0,184.56,41.94,-119.06,184.56,41.94,-119.06,-0.02,-0.62,-0.55,-0.56,0.0,160.5,35.56,-64.81,160.5,35.56,-64.81,0.15,-0.26,-0.49,-0.82
0.0,182.81,41.56,-124.12,182.81,41.56,-124.12,-0.01,-0.64,-0.56,-0.53,0.0,156.88,33.88,-58.75,156.88,33.88,-58.75,0.18,-0.23,-0.48,-0.83
0.0,179.25,42.13,-129.75,179.25,42.13,-129.75,0.01,-0.65,-0.56,-0.51,0.0,155.5,32.19,-57.81,155.5,32.19,-57.81,0.18,-0.21,-0.48,-0.83
0.0,177.5,41.63,-131.81,177.5,41.63,-131.81,0.01,-0.65,-0.57,-0.5,3.0,155.31,31.62,-56.19,155.31,31.62,-56.19,0.19,-0.21,-0.46,-0.84
0.0,174.75,42.06,-133.75,174.75,42.06,-133.75,0.03,-0.66,-0.57,-0.49,3.0,153.69,31.62,-54.13,153.69,31.62,-54.13,0.2,-0.2,-0.46,-0.84
0.0,171.44,43.19,-136.06,171.44,43.19,-136.06,0.04,-0.66,-0.57,-0.49,3.0,153.25,31.56,-53.81,153.25,31.56,-53.81,0.2,-0.2,-0.46,-0.84
0.0,169.69,43.94,-137.0,169.69,43.94,-137.0,0.04,-0.67,-0.57,-0.48,3.0,153.81,31.69,-53.88,153.81,31.69,-53.88,0.19,-0.21,-0.46,-0.84
0.0,168.06,44.44,-138.56,168.06,44.44,-138.56,0.05,-0.68,-0.56,-0.48,3.0,154.56,31.75,-54.38,154.56,31.75,-54.38,0.19,-0.21,-0.46,-0.84
0.0,165.38,45.44,-140.25,165.38,45.44,-140.25,0.06,-0.68,-0.56,-0.48,3.0,155.56,31.62,-55.56,155.56,31.62,-55.56,0.18,-0.21,-0.47,-0.84
0.0,164.13,46.13,-140.13,164.13,46.13,-140.13,0.07,-0.67,-0.56,-0.48,3.0,157.06,31.44,-56.69,157.06,31.44,-56.69,0.17,-0.22,-0.47,-0.84
0.0,163.25,47.06,-138.88,163.25,47.06,-138.88,0.07,-0.66,-0.56,-0.49,3.0,158.0,31.06,-57.69,158.0,31.06,-57.69,0.16,-0.22,-0.48,-0.84
0.0,162.56,47.81,-135.94,162.56,47.81,-135.94,0.08,-0.64,-0.57,-0.51,3.0,158.81,30.69,-59.06,158.81,30.69,-59.06,0.16,-0.22,-0.49,-0.83
0.0,162.0,48.56,-132.25,162.0,48.56,-132.25,0.08,-0.62,-0.57,-0.53,3.0,157.19,31.37,-61.19,157.19,31.37,-61.19,0.17,-0.22,-0.5,-0.82
0.0,161.5,49.56,-127.94,161.5,49.56,-127.94,0.09,-0.6,-0.57,-0.55,3.0,155.25,33.5,-64.56,155.25,33.5,-64.56,0.18,-0.24,-0.53,-0.8
0.0,160.5,50.06,-121.25,160.5,50.06,-121.25,0.1,-0.56,-0.58,-0.58,3.0,152.81,36.31,-69.81,152.81,36.31,-69.81,0.19,-0.25,-0.56,-0.76
0.0,157.69,50.94,-113.12,157.69,50.94,-113.12,0.13,-0.52,-0.58,-0.61,3.0,146.81,40.0,-77.62,146.81,40.0,-77.62,0.23,-0.27,-0.61,-0.71
0.0,150.81,54.75,-101.5,150.81,54.75,-101.5,0.18,-0.46,-0.56,-0.67,3.0,138.44,43.88,-87.62,138.44,43.88,-87.62,0.26,-0.27,-0.66,-0.65
0.0,149.31,52.88,-79.81,149.31,52.88,-79.81,0.2,-0.39,-0.5,-0.75,3.0,133.38,44.88,-97.62,133.38,44.88,-97.62,0.27,-0.27,-0.7,-0.61
0.0,152.25,47.19,-61.19,152.25,47.19,-61.19,0.2,-0.33,-0.45,-0.81,3.0,131.81,43.44,-103.19,131.81,43.44,-103.19,0.27,-0.25,-0.72,-0.58
0.0,151.19,42.81,-53.44,151.19,42.81,-53.44,0.22,-0.29,-0.44,-0.82,3.0,125.69,44.56,-104.0,125.69,44.56,-104.0,0.32,-0.24,-0.72,-0.56
0.0,147.81,42.13,-53.13,147.81,42.13,-53.13,0.25,-0.28,-0.45,-0.81,3.0,111.25,51.69,-101.0,111.25,51.69,-101.0,0.4,-0.22,-0.71,-0.54
0.0,144.81,41.63,-55.69,144.81,41.63,-55.69,0.26,-0.26,-0.48,-0.8,3.0,104.06,54.63,-96.19,104.06,54.63,-96.19,0.43,-0.21,-0.69,-0.54
0.0,143.69,41.19,-59.25,143.69,41.19,-59.25,0.26,-0.26,-0.5,-0.78,2.0,103.81,54.63,-90.69,103.81,54.63,-90.69,0.43,-0.2,-0.67,-0.56
0.0,142.06,44.94,-63.56,142.06,44.94,-63.56,0.26,-0.3,-0.52,-0.76,2.0,107.12,53.13,-84.12,107.12,53.13,-84.12,0.43,-0.2,-0.65,-0.6
0.0,140.88,48.75,-72.94,140.88,48.75,-72.94,0.25,-0.33,-0.56,-0.71,2.0,111.62,50.69,-78.5,111.62,50.69,-78.5,0.42,-0.19,-0.63,-0.63
0.0,140.13,51.31,-84.81,140.13,51.31,-84.81,0.25,-0.37,-0.59,-0.67,2.0,116.06,48.0,-74.81,116.06,48.0,-74.81,0.4,-0.19,-0.61,-0.66
0.0,139.13,53.75,-95.12,139.13,53.75,-95.12,0.24,-0.41,-0.61,-0.64,2.0,121.12,45.25,-71.69,121.12,45.25,-71.69,0.38,-0.19,-0.59,-0.69
0.0,140.44,52.94,-102.5,140.44,52.94,-102.5,0.22,-0.42,-0.63,-0.61,2.0,124.87,43.25,-68.12,124.87,43.25,-68.12,0.37,-0.18,-0.57,-0.71
0.0,140.88,52.94,-109.0,140.88,52.94,-109.0,0.21,-0.45,-0.63,-0.59,2.0,125.56,42.44,-65.44,125.56,42.44,-65.44,0.37,-0.18,-0.56,-0.72
0.0,141.69,52.69,-112.06,141.69,52.69,-112.06,0.2,-0.46,-0.64,-0.59,1.0,126.0,41.88,-63.31,126.0,41.88,-63.31,0.37,-0.18,-0.55,-0.73
0.0,144.19,50.81,-112.12,144.19,50.81,-112.12,0.19,-0.45,-0.64,-0.59,1.0,126.87,41.31,-61.81,126.87,41.31,-61.81,0.37,-0.18,-0.54,-0.74
0.0,145.63,50.5,-113.87,145.63,50.5,-113.87,0.18,-0.47,-0.64,-0.58,1.0,127.5,40.94,-60.31,127.5,40.94,-60.31,0.37,-0.18,-0.53,-0.75
0.0,147.0,49.94,-113.81,147.0,49.94,-113.81,0.17,-0.46,-0.64,-0.58,1.0,127.94,40.63,-59.44,127.94,40.63,-59.44,0.36,-0.18,-0.52,-0.75
0.0,147.63,49.69,-112.69,147.63,49.69,-112.69,0.17,-0.46,-0.64,-0.59,1.0,128.38,40.44,-58.81,128.38,40.44,-58.81,0.36,-0.18,-0.52,-0.75
0.0,147.94,50.06,-111.06,147.94,50.06,-111.06,0.17,-0.46,-0.63,-0.6,1.0,128.88,40.56,-58.5,128.88,40.56,-58.5,0.36,-0.18,-0.52,-0.75
0.0,147.94,50.88,-108.81,147.94,50.88,-108.81,0.18,-0.46,-0.62,-0.61,1.0,129.63,40.88,-58.81,129.63,40.88,-58.81,0.35,-0.19,-0.52,-0.75
0.0,147.75,51.13,-105.5,147.75,51.13,-105.5,0.18,-0.45,-0.61,-0.63,1.0,128.81,41.75,-59.5,128.81,41.75,-59.5,0.36,-0.19,-0.52,-0.75
0.0,147.94,52.13,-100.94,147.94,52.13,-100.94,0.19,-0.45,-0.59,-0.65,1.0,126.69,43.13,-59.75,126.69,43.13,-59.75,0.37,-0.2,-0.53,-0.74
0.0,147.88,53.06,-94.69,147.88,53.06,-94.69,0.19,-0.43,-0.57,-0.67,1.0,124.37,45.06,-59.44,124.37,45.06,-59.44,0.38,-0.21,-0.53,-0.73
0.0,147.81,53.13,-87.37,147.81,53.13,-87.37,0.2,-0.42,-0.55,-0.7,1.0,123.94,47.25,-61.63,123.94,47.25,-61.63,0.38,-0.23,-0.54,-0.72
0.0,147.38,53.19,-79.75,147.38,53.19,-79.75,0.21,-0.4,-0.52,-0.72,1.0,124.69,50.38,-67.25,124.69,50.38,-67.25,0.37,-0.26,-0.56,-0.7
0.0,148.5,52.06,-71.5,148.5,52.06,-71.5,0.21,-0.39,-0.49,-0.75,1.0,132.31,49.75,-79.25,132.31,49.75,-79.25,0.3,-0.3,-0.59,-0.68
0.0,150.81,52.0,-62.81,150.81,52.0,-62.81,0.2,-0.39,-0.44,-0.78,1.0,137.94,49.19,-86.0,137.94,49.19,-86.0,0.26,-0.33,-0.61,-0.67
0.0,154.88,51.13,-56.5,154.88,51.13,-56.5,0.17,-0.4,-0.41,-0.81,1.0,136.31,51.69,-91.62,136.31,51.69,-91.62,0.26,-0.36,-0.62,-0.65
0.0,160.81,51.25,-57.0,160.81,51.25,-57.0,0.12,-0.43,-0.4,-0.8,1.0,144.63,47.63,-102.81,144.63,47.63,-102.81,0.2,-0.39,-0.65,-0.62
0.0,164.94,54.19,-66.5,164.94,54.19,-66.5,0.08,-0.48,-0.41,-0.77,2.0,167.69,34.63,-106.87,167.69,34.63,-106.87,0.07,-0.39,-0.68,-0.61
0.0,173.88,52.31,-80.94,173.88,52.31,-80.94,0.02,-0.53,-0.44,-0.72,2.0,160.38,39.0,-91.69,160.38,39.0,-91.69,0.12,-0.35,-0.62,-0.69
0.0,178.06,56.13,-100.19,178.06,56.13,-100.19,0.02,-0.65,-0.4,-0.64,2.0,143.06,42.44,-70.25,143.06,42.44,-70.25,0.25,-0.27,-0.55,-0.75
0.0,173.31,59.56,-124.06,173.31,59.56,-124.06,0.03,-0.71,-0.4,-0.58,2.0,138.88,38.19,-56.81,138.88,38.19,-56.81,0.3,-0.21,-0.49,-0.79
0.0,172.56,55.75,-131.75,172.56,55.75,-131.75,0.04,-0.72,-0.43,-0.55,2.0,141.88,35.19,-50.13,141.88,35.19,-50.13,0.28,-0.19,-0.45,-0.83
0.0,170.88,52.94,-137.25,170.88,52.94,-137.25,0.04,-0.72,-0.45,-0.52,2.0,148.06,32.25,-47.75,148.06,32.25,-47.75,0.24,-0.19,-0.42,-0.85
0.0,170.31,50.31,-140.19,170.31,50.31,-140.19,0.04,-0.73,-0.47,-0.5,2.0,149.63,29.5,-46.94,149.63,29.5,-46.94,0.23,-0.17,-0.42,-0.86
0.0,170.19,48.69,-141.5,170.19,48.69,-141.5,0.04,-0.72,-0.49,-0.49,2.0,150.13,28.5,-46.69,150.13,28.5,-46.69,0.23,-0.17,-0.41,-0.86
0.0,170.38,47.31,-141.31,170.38,47.31,-141.31,0.04,-0.71,-0.51,-0.48,2.0,151.81,28.87,-47.31,151.81,28.87,-47.31,0.22,-0.17,-0.42,-0.87
0.0,170.69,45.81,-140.75,170.69,45.81,-140.75,0.04,-0.71,-0.52,-0.47,2.0,152.44,29.12,-47.75,152.44,29.12,-47.75,0.21,-0.18,-0.42,-0.87
0.0,169.13,45.38,-142.88,169.13,45.38,-142.88,0.05,-0.71,-0.52,-0.46,3.0,152.06,29.37,-47.5,152.06,29.37,-47.5,0.22,-0.18,-0.42,-0.86
0.0,168.56,45.31,-143.38,168.56,45.31,-143.38,0.05,-0.71,-0.53,-0.47,3.0,151.69,29.69,-48.0,151.69,29.69,-48.0,0.22,-0.18,-0.42,-0.86
0.0,168.56,45.0,-142.38,168.56,45.0,-142.38,0.05,-0.7,-0.53,-0.47,3.0,151.13,30.12,-48.13,151.13,30.12,-48.13,0.22,-0.18,-0.42,-0.86
0.0,167.75,44.94,-143.56,167.75,44.94,-143.56,0.05,-0.71,-0.53,-0.46,3.0,151.38,30.44,-49.31,151.38,30.44,-49.31,0.22,-0.19,-0.43,-0.86
0.0,166.81,45.13,-143.5,166.81,45.13,-143.5,0.05,-0.7,-0.54,-0.46,3.0,151.69,30.25,-50.44,151.69,30.25,-50.44,0.21,-0.19,-0.44,-0.85
0.0,167.5,45.31,-139.81,167.5,45.31,-139.81,0.05,-0.67,-0.56,-0.49,3.0,154.94,29.44,-53.75,154.94,29.44,-53.75,0.18,-0.19,-0.46,-0.85
0.0,167.19,45.06,-133.31,167.19,45.06,-133.31,0.06,-0.63,-0.59,-0.51,3.0,156.31,29.37,-55.31,156.31,29.37,-55.31,0.18,-0.19,-0.46,-0.85
0.0,161.31,48.0,-133.81,161.31,48.0,-133.81,0.1,-0.64,-0.57,-0.51,3.0,155.25,30.0,-56.31,155.25,30.0,-56.31,0.18,-0.2,-0.48,-0.84
0.0,151.44,53.5,-134.19,151.44,53.5,-134.19,0.15,-0.6,-0.57,-0.54,3.0,156.56,31.75,-61.63,156.56,31.75,-61.63,0.16,-0.23,-0.52,-0.81
0.0,147.06,57.06,-119.5,147.06,57.06,-119.5,0.19,-0.53,-0.57,-0.6,3.0,158.81,34.44,-70.56,158.81,34.44,-70.56,0.14,-0.27,-0.56,-0.77
0.0,142.38,60.56,-103.44,142.38,60.56,-103.44,0.23,-0.49,-0.54,-0.65,3.0,157.94,37.25,-78.62,157.94,37.25,-78.62,0.15,-0.3,-0.59,-0.74
0.0,139.88,63.25,-85.31,139.88,63.25,-85.31,0.26,-0.47,-0.49,-0.69,3.0,152.38,41.13,-83.81,152.38,41.13,-83.81,0.19,-0.32,-0.61,-0.7
0.0,138.31,62.75,-72.44,138.31,62.75,-72.44,0.27,-0.44,-0.48,-0.71,3.0,147.0,44.25,-87.06,147.0,44.25,-87.06,0.21,-0.33,-0.61,-0.69
0.0,135.63,63.38,-66.81,135.63,63.38,-66.81,0.3,-0.44,-0.46,-0.71,3.0,146.13,45.19,-89.56,146.13,45.19,-89.56,0.2,-0.33,-0.63,-0.68
0.0,131.75,66.12,-62.0,131.75,66.12,-62.0,0.32,-0.45,-0.45,-0.7,3.0,148.88,42.94,-91.37,148.88,42.94,-91.37,0.19,-0.33,-0.63,-0.68
0.0,131.06,67.12,-58.5,131.06,67.12,-58.5,0.31,-0.45,-0.44,-0.71,3.0,145.94,44.25,-86.37,145.94,44.25,-86.37,0.22,-0.31,-0.61,-0.7
0.0,135.0,65.62,-65.12,135.0,65.62,-65.12,0.28,-0.47,-0.46,-0.7,3.0,142.31,44.88,-79.69,142.31,44.88,-79.69,0.25,-0.29,-0.58,-0.72
0.0,135.81,70.12,-86.94,135.81,70.12,-86.94,0.27,-0.56,-0.46,-0.63,3.0,137.31,44.94,-69.62,137.31,44.94,-69.62,0.3,-0.25,-0.54,-0.74
0.0,130.63,74.56,-143.56,130.63,74.56,-143.56,0.26,-0.68,-0.42,-0.53,3.0,132.25,42.25,-60.19,132.25,42.25,-60.19,0.35,-0.2,-0.51,-0.76
0.0,119.56,62.94,175.81,119.56,62.94,175.81,0.26,-0.78,-0.39,-0.41,3.0,127.94,38.31,-52.75,127.94,38.31,-52.75,0.39,-0.15,-0.47,-0.78
0.0,106.37,49.94,164.88,106.37,49.94,164.88,0.26,-0.84,-0.36,-0.32,3.0,126.56,36.13,-48.25,126.56,36.13,-48.25,0.39,-0.15,-0.45,-0.79
0.0,140.56,36.38,160.0,140.56,36.38,160.0,0.24,-0.9,-0.29,-0.21,3.0,129.38,36.38,-46.88,129.38,36.38,-46.88,0.37,-0.17,-0.44,-0.8
0.0,150.06,22.44,153.38,150.06,22.44,153.38,0.28,-0.92,-0.24,-0.11,3.0,130.63,36.81,-45.69,130.63,36.81,-45.69,0.37,-0.17,-0.43,-0.8
0.0,148.56,16.37,144.19,148.56,16.37,144.19,0.36,-0.89,-0.28,-0.06,3.0,130.19,36.44,-44.94,130.19,36.44,-44.94,0.37,-0.17,-0.43,-0.81
0.0,17.31,23.19,135.75,17.31,23.19,135.75,0.43,-0.81,-0.39,-0.07,2.0,130.56,35.69,-44.5,130.56,35.69,-44.5,0.37,-0.17,-0.43,-0.81
0.0,23.56,32.06,135.06,23.56,32.06,135.06,0.44,-0.77,-0.45,-0.09,2.0,131.19,35.94,-44.88,131.19,35.94,-44.88,0.37,-0.17,-0.43,-0.81
0.0,15.06,29.87,132.5,15.06,29.87,132.5,0.46,-0.76,-0.46,-0.05,2.0,131.5,37.0,-45.25,131.5,37.0,-45.25,0.36,-0.18,-0.43,-0.8
0.0,18.75,36.63,132.44,18.75,36.63,132.44,0.47,-0.69,-0.54,-0.1,2.0,131.75,38.06,-45.44,131.75,38.06,-45.44,0.36,-0.19,-0.43,-0.8
0.0,24.56,42.19,134.0,24.56,42.19,134.0,0.49,-0.67,-0.55,-0.09,2.0,131.38,38.38,-44.88,131.38,38.38,-44.88,0.37,-0.19,-0.43,-0.8
0.0,18.25,40.31,130.63,18.25,40.31,130.63,0.5,-0.67,-0.55,-0.08,2.0,129.75,38.5,-43.56,129.75,38.5,-43.56,0.38,-0.19,-0.42,-0.8
0.0,16.12,39.13,130.81,16.12,39.13,130.81,0.49,-0.68,-0.54,-0.06,2.0,129.63,38.69,-43.19,129.63,38.69,-43.19,0.38,-0.19,-0.42,-0.8
0.0,10.88,34.69,131.44,10.88,34.69,131.44,0.47,-0.71,-0.53,-0.04,2.0,128.75,38.94,-42.69,128.75,38.94,-42.69,0.39,-0.19,-0.42,-0.8
0.0,10.31,33.69,130.94,10.31,33.69,130.94,0.48,-0.71,-0.52,-0.04,2.0,128.0,39.19,-41.81,128.0,39.19,-41.81,0.39,-0.19,-0.42,-0.8
0.0,7.69,31.75,130.13,7.69,31.75,130.13,0.47,-0.73,-0.5,-0.02,2.0,128.06,39.0,-41.19,128.06,39.0,-41.19,0.39,-0.19,-0.41,-0.8
0.0,3.25,28.5,130.25,3.25,28.5,130.25,0.46,-0.74,-0.49,-0.01,2.0,127.94,38.25,-40.31,127.94,38.25,-40.31,0.39,-0.19,-0.41,-0.8
0.0,3.75,28.87,130.5,3.75,28.87,130.5,0.47,-0.73,-0.5,-0.01,2.0,127.37,37.38,-38.75,127.37,37.38,-38.75,0.4,-0.18,-0.4,-0.81
0.0,4.0,29.56,129.94,4.0,29.56,129.94,0.47,-0.72,-0.51,-0.02,2.0,127.25,36.88,-37.06,127.25,36.88,-37.06,0.4,-0.18,-0.39,-0.81
0.0,7.0,31.62,131.0,7.0,31.62,131.0,0.47,-0.71,-0.52,-0.03,2.0,128.25,36.5,-36.5,128.25,36.5,-36.5,0.4,-0.18,-0.38,-0.82
0.0,8.13,32.25,132.25,8.13,32.25,132.25,0.46,-0.71,-0.53,-0.03,2.0,128.75,36.06,-35.88,128.75,36.06,-35.88,0.39,-0.18,-0.37,-0.82
0.0,8.19,32.75,132.19,8.19,32.75,132.19,0.47,-0.7,-0.53,-0.03,2.0,128.19,35.56,-35.5,128.19,35.56,-35.5,0.4,-0.17,-0.37,-0.82
0.0,8.13,33.56,132.06,8.13,33.56,132.06,0.47,-0.7,-0.54,-0.03,2.0,127.81,35.13,-35.44,127.81,35.13,-35.44,0.4,-0.17,-0.37,-0.82
0.0,8.06,34.31,132.81,8.06,34.31,132.81,0.47,-0.68,-0.56,-0.03,2.0,128.75,34.44,-35.31,128.75,34.44,-35.31,0.39,-0.16,-0.37,-0.83
0.0,7.88,35.31,133.31,7.88,35.31,133.31,0.47,-0.67,-0.57,-0.03,2.0,128.75,33.31,-34.25,128.75,33.31,-34.25,0.4,-0.15,-0.36,-0.83
0.0,218.31,35.5,133.69,218.31,35.5,133.69,0.15,0.37,-0.8,0.44,2.0,125.94,31.87,-32.88,125.94,31.87,-32.88,0.43,-0.14,-0.35,-0.82
0.0,217.19,34.94,131.81,217.19,34.94,131.81,0.15,0.37,-0.8,0.45,2.0,122.87,30.69,-31.69,122.87,30.69,-31.69,0.45,-0.12,-0.34,-0.82
0.0,216.81,35.0,130.5,216.81,35.0,130.5,0.15,0.36,-0.8,0.46,2.0,122.12,30.37,-31.5,122.12,30.37,-31.5,0.45,-0.12,-0.34,-0.82
0.0,216.63,34.94,130.13,216.63,34.94,130.13,0.15,0.36,-0.8,0.46,2.0,122.37,30.19,-31.94,122.37,30.19,-31.94,0.45,-0.12,-0.35,-0.82
0.0,215.94,35.38,129.75,215.94,35.38,129.75,0.15,0.37,-0.79,0.47,2.0,122.0,29.56,-32.44,122.0,29.56,-32.44,0.46,-0.11,-0.35,-0.81
0.0,214.69,35.88,129.88,214.69,35.88,129.88,0.15,0.38,-0.78,0.47,2.0,120.44,28.94,-33.0,120.44,28.94,-33.0,0.47,-0.1,-0.35,-0.81
0.0,215.06,38.38,131.75,215.06,38.38,131.75,0.15,0.43,-0.76,0.47,2.0,118.94,28.19,-33.13,118.94,28.19,-33.13,0.48,-0.08,-0.35,-0.8
0.0,210.63,40.88,132.75,210.63,40.88,132.75,0.13,0.49,-0.72,0.48,2.0,117.31,27.25,-32.94,117.31,27.25,-32.94,0.49,-0.07,-0.35,-0.8
0.0,206.31,44.0,133.0,206.31,44.0,133.0,0.11,0.57,-0.64,0.5,2.0,115.12,26.25,-33.06,115.12,26.25,-33.06,0.5,-0.06,-0.35,-0.79
0.0,206.31,48.75,135.5,206.31,48.75,135.5,0.11,0.62,-0.59,0.5,2.0,113.87,25.69,-33.0,113.87,25.69,-33.0,0.51,-0.05,-0.35,-0.79
0.0,199.38,48.5,135.56,199.38,48.5,135.56,0.07,0.66,-0.55,0.51,2.0,113.5,25.56,-33.19,113.5,25.56,-33.19,0.51,-0.05,-0.35,-0.78
0.0,191.38,48.69,136.31,191.38,48.69,136.31,0.04,0.7,-0.51,0.51,3.0,113.87,25.69,-33.69,113.87,25.69,-33.69,0.51,-0.05,-0.35,-0.78
0.0,184.38,46.81,136.31,184.38,46.81,136.31,0.01,0.71,-0.49,0.5,3.0,114.25,25.56,-34.44,114.25,25.56,-34.44,0.51,-0.05,-0.36,-0.78
0.0,179.69,47.25,136.69,179.69,47.25,136.69,-0.01,0.74,-0.44,0.51,3.0,114.12,25.31,-34.88,114.12,25.31,-34.88,0.51,-0.04,-0.36,-0.78
0.0,176.44,49.81,137.5,176.44,49.81,137.5,-0.02,0.76,-0.39,0.51,3.0,113.87,25.0,-35.81,113.87,25.0,-35.81,0.51,-0.04,-0.36,-0.78
0.0,170.75,49.06,137.44,170.75,49.06,137.44,-0.05,0.78,-0.36,0.5,3.0,113.56,24.87,-36.19,113.56,24.87,-36.19,0.51,-0.03,-0.37,-0.78
3.0,165.63,48.5,137.88,165.63,48.5,137.88,-0.06,0.8,-0.34,0.5,3.0,113.37,24.81,-36.5,113.37,24.81,-36.5,0.51,-0.03,-0.37,-0.78
3.0,165.56,49.19,140.06,165.56,49.19,140.06,-0.06,0.81,-0.32,0.49,3.0,112.81,24.62,-37.06,112.81,24.62,-37.06,0.51,-0.02,-0.37,-0.77
3.0,161.75,48.06,139.88,161.75,48.06,139.88,-0.09,0.81,-0.31,0.49,3.0,112.56,24.56,-37.38,112.56,24.56,-37.38,0.52,-0.02,-0.37,-0.77
3.0,158.5,47.13,138.94,158.5,47.13,138.94,-0.09,0.81,-0.31,0.49,3.0,112.19,24.37,-37.81,112.19,24.37,-37.81,0.52,-0.02,-0.38,-0.77
3.0,159.56,48.38,139.69,159.56,48.38,139.69,-0.09,0.82,-0.28,0.49,3.0,111.31,24.12,-38.38,111.31,24.12,-38.38,0.52,-0.01,-0.38,-0.76
3.0,153.56,46.75,140.0,153.56,46.75,140.0,-0.12,0.84,-0.26,0.47,3.0,111.06,24.06,-38.69,111.06,24.06,-38.69,0.52,-0.01,-0.38,-0.76
3.0,150.06,47.0,141.44,150.06,47.0,141.44,-0.12,0.85,-0.21,0.47,3.0,110.87,23.87,-38.94,110.87,23.87,-38.94,0.52,-0.0,-0.38,-0.76
3.0,151.5,50.31,143.31,151.5,50.31,143.31,-0.12,0.85,-0.18,0.48,3.0,110.56,23.62,-39.06,110.56,23.62,-39.06,0.53,0.0,-0.38,-0.76
3.0,151.81,50.25,145.31,151.81,50.25,145.31,-0.12,0.86,-0.16,0.47,3.0,110.37,23.25,-39.25,110.37,23.25,-39.25,0.53,0.01,-0.38,-0.76
3.0,152.69,51.5,148.0,152.69,51.5,148.0,-0.11,0.86,-0.12,0.47,3.0,110.31,22.81,-39.69,110.31,22.81,-39.69,0.53,0.01,-0.38,-0.76
3.0,155.25,55.56,154.69,155.25,55.56,154.69,-0.1,0.87,-0.02,0.49,3.0,109.81,22.19,-40.06,109.81,22.19,-40.06,0.53,0.02,-0.38,-0.75
3.0,161.44,60.94,170.31,161.44,60.94,170.31,-0.08,0.85,0.1,0.51,3.0,108.56,21.19,-40.5,108.56,21.19,-40.5,0.54,0.04,-0.38,-0.75
3.0,162.31,63.5,-177.5,162.31,63.5,-177.5,-0.08,0.83,0.16,0.52,3.0,107.06,19.87,-41.38,107.06,19.87,-41.38,0.55,0.06,-0.38,-0.74
3.0,161.88,63.0,-174.38,161.88,63.0,-174.38,-0.08,0.84,0.18,0.51,3.0,104.87,18.81,-42.25,104.87,18.81,-42.25,0.56,0.08,-0.38,-0.73
3.0,162.56,62.0,-175.38,162.56,62.0,-175.38,-0.08,0.84,0.16,0.51,3.0,102.94,17.75,-43.63,102.94,17.75,-43.63,0.58,0.1,-0.38,-0.71
3.0,160.25,61.63,-178.38,160.25,61.63,-178.38,-0.1,0.84,0.16,0.5,3.0,101.0,17.0,-45.0,101.0,17.0,-45.0,0.59,0.12,-0.39,-0.7
3.0,152.75,61.88,176.38,152.75,61.88,176.38,-0.13,0.83,0.18,0.5,3.0,98.69,16.56,-46.19,98.69,16.56,-46.19,0.6,0.13,-0.39,-0.69
3.0,146.25,65.5,171.88,146.25,65.5,171.88,-0.16,0.81,0.21,0.53,3.0,97.06,16.5,-47.06,97.06,16.5,-47.06,0.6,0.14,-0.39,-0.68
3.0,144.81,69.62,175.75,144.81,69.62,175.75,-0.17,0.79,0.23,0.55,3.0,97.12,16.75,-47.5,97.12,16.75,-47.5,0.6,0.14,-0.4,-0.68
3.0,143.13,70.44,168.31,143.13,70.44,168.31,-0.19,0.79,0.19,0.55,3.0,97.75,16.81,-47.69,97.75,16.81,-47.69,0.6,0.14,-0.4,-0.68
3.0,140.06,70.81,153.56,140.06,70.81,153.56,-0.2,0.79,0.15,0.57,3.0,97.44,16.69,-48.13,97.44,16.69,-48.13,0.6,0.14,-0.4,-0.68
3.0,139.25,72.44,141.94,139.25,72.44,141.94,-0.22,0.77,0.12,0.59,3.0,96.75,16.87,-48.31,96.75,16.87,-48.31,0.6,0.14,-0.4,-0.68
3.0,137.63,72.69,127.37,137.63,72.69,127.37,-0.24,0.76,0.08,0.6,3.0,97.37,17.31,-48.19,97.37,17.31,-48.19,0.6,0.14,-0.4,-0.68
3.0,133.56,69.06,112.81,133.56,69.06,112.81,-0.27,0.75,0.03,0.61,3.0,98.31,17.5,-48.25,98.31,17.5,-48.25,0.59,0.13,-0.41,-0.68
3.0,127.81,63.94,95.87,127.81,63.94,95.87,-0.31,0.71,-0.01,0.63,3.0,98.56,18.12,-48.56,98.56,18.12,-48.56,0.59,0.13,-0.41,-0.69
3.0,124.37,58.75,85.87,124.37,58.75,85.87,-0.34,0.69,-0.04,0.64,3.0,99.56,18.44,-48.81,99.56,18.44,-48.81,0.58,0.12,-0.42,-0.69
3.0,118.69,51.56,80.12,118.69,51.56,80.12,-0.38,0.66,-0.09,0.64,3.0,100.25,19.0,-48.94,100.25,19.0,-48.94,0.58,0.11,-0.42,-0.69
3.0,120.12,51.75,75.62,120.12,51.75,75.62,-0.38,0.65,-0.08,0.66,3.0,100.87,19.12,-49.13,100.87,19.12,-49.13,0.57,0.11,-0.42,-0.69
3.0,118.31,44.94,70.06,118.31,44.94,70.06,-0.4,0.6,-0.13,0.68,3.0,101.0,19.75,-49.56,101.0,19.75,-49.56,0.57,0.11,-0.43,-0.69
3.0,121.12,42.0,60.69,121.12,42.0,60.69,-0.41,0.55,-0.14,0.72,3.0,101.44,19.81,-49.75,101.44,19.81,-49.75,0.57,0.11,-0.43,-0.69
3.0,121.56,35.94,53.69,121.56,35.94,53.69,-0.42,0.48,-0.16,0.75,3.0,101.81,19.87,-49.81,101.81,19.87,-49.81,0.56,0.11,-0.43,-0.7
3.0,123.0,33.0,49.38,123.0,33.0,49.38,-0.42,0.43,-0.17,0.78,3.0,101.75,19.87,-49.94,101.75,19.87,-49.94,0.57,0.11,-0.43,-0.69
3.0,123.56,29.25,45.75,123.56,29.25,45.75,-0.43,0.4,-0.18,0.79,3.0,101.62,20.0,-50.31,101.62,20.0,-50.31,0.56,0.11,-0.44,-0.69
3.0,122.5,27.31,44.94,122.5,27.31,44.94,-0.44,0.39,-0.18,0.79,3.0,101.56,20.06,-51.25,101.56,20.06,-51.25,0.56,0.11,-0.44,-0.69
3.0,121.06,27.69,44.75,121.06,27.69,44.75,-0.45,0.4,-0.17,0.78,3.0,101.12,20.31,-52.19,101.12,20.31,-52.19,0.56,0.11,-0.45,-0.68
3.0,120.06,29.62,44.5,120.06,29.62,44.5,-0.45,0.41,-0.15,0.78,3.0,101.44,20.37,-52.69,101.44,20.37,-52.69,0.56,0.11,-0.45,-0.69
3.0,118.06,31.12,45.81,118.06,31.12,45.81,-0.46,0.43,-0.14,0.76,3.0,101.56,20.5,-52.69,101.56,20.5,-52.69,0.56,0.11,-0.45,-0.69
3.0,117.0,32.56,46.38,117.0,32.56,46.38,-0.47,0.44,-0.13,0.76,3.0,101.87,20.5,-52.69,101.87,20.5,-52.69,0.56,0.11,-0.45,-0.69
3.0,116.31,33.44,46.0,116.31,33.44,46.0,-0.47,0.44,-0.12,0.76,3.0,102.44,20.62,-52.38,102.44,20.62,-52.38,0.55,0.11,-0.45,-0.69
3.0,115.81,33.25,46.19,115.81,33.25,46.19,-0.47,0.44,-0.13,0.75,3.0,102.56,21.31,-52.06,102.56,21.31,-52.06,0.55,0.1,-0.45,-0.69
3.0,114.62,31.62,47.5,114.62,31.62,47.5,-0.48,0.44,-0.14,0.75,3.0,102.87,22.31,-51.56,102.87,22.31,-51.56,0.55,0.09,-0.45,-0.69
3.0,114.94,30.37,46.44,114.94,30.37,46.44,-0.48,0.42,-0.14,0.76,3.0,103.81,23.06,-50.94,103.81,23.06,-50.94,0.55,0.07,-0.45,-0.7
3.0,115.37,28.69,45.5,115.37,28.69,45.5,-0.48,0.41,-0.15,0.76,3.0,105.19,23.44,-50.44,105.19,23.44,-50.44,0.54,0.06,-0.45,-0.71
3.0,115.75,27.19,44.63,115.75,27.19,44.63,-0.48,0.39,-0.16,0.77,3.0,104.69,25.56,-50.31,104.69,25.56,-50.31,0.54,0.05,-0.46,-0.7
3.0,115.87,26.0,43.81,115.87,26.0,43.81,-0.48,0.38,-0.16,0.77,3.0,102.94,29.19,-51.5,102.94,29.19,-51.5,0.54,0.01,-0.49,-0.68
3.0,115.81,25.44,43.44,115.81,25.44,43.44,-0.48,0.38,-0.16,0.77,3.0,105.75,32.0,-55.69,105.75,32.0,-55.69,0.51,-0.01,-0.52,-0.69
3.0,115.56,25.12,42.63,115.56,25.12,42.63,-0.49,0.37,-0.16,0.77,3.0,109.31,32.5,-58.0,109.31,32.5,-58.0,0.48,-0.01,-0.53,-0.7
3.0,116.87,26.19,40.75,116.87,26.19,40.75,-0.48,0.37,-0.15,0.78,3.0,109.81,31.0,-60.25,109.81,31.0,-60.25,0.49,0.01,-0.54,-0.68
3.0,116.19,25.31,42.13,116.19,25.31,42.13,-0.48,0.37,-0.16,0.78,3.0,106.62,30.75,-60.19,106.62,30.75,-60.19,0.51,0.02,-0.53,-0.68
3.0,117.5,26.5,42.69,117.5,26.5,42.69,-0.47,0.38,-0.16,0.78,3.0,107.37,30.19,-61.0,107.37,30.19,-61.0,0.49,0.02,-0.54,-0.68
3.0,116.31,26.69,44.25,116.31,26.69,44.25,-0.48,0.39,-0.16,0.77,3.0,113.0,28.56,-63.5,113.0,28.56,-63.5,0.44,0.02,-0.56,-0.7
3.0,116.12,24.56,44.63,116.12,24.56,44.63,-0.48,0.38,-0.18,0.77,3.0,118.69,25.69,-67.19,118.69,25.69,-67.19,0.41,0.04,-0.58,-0.71
3.0,117.25,23.12,41.06,117.25,23.12,41.06,-0.48,0.35,-0.17,0.79,3.0,120.12,24.25,-71.12,120.12,24.25,-71.12,0.39,0.05,-0.6,-0.69
3.0,117.12,21.44,41.94,117.12,21.44,41.94,-0.49,0.35,-0.2,0.78,3.0,123.06,22.25,-75.94,123.06,22.25,-75.94,0.37,0.06,-0.62,-0.69
3.0,114.25,19.19,44.94,114.25,19.19,44.94,-0.49,0.35,-0.21,0.77,3.0,128.06,19.31,-79.62,128.06,19.31,-79.62,0.33,0.07,-0.64,-0.69
3.0,115.81,20.62,43.38,115.81,20.62,43.38,-0.48,0.35,-0.18,0.78,3.0,132.38,16.31,-81.69,132.38,16.31,-81.69,0.3,0.08,-0.65,-0.69
3.0,122.25,27.0,39.63,122.25,27.0,39.63,-0.44,0.37,-0.14,0.81,3.0,132.31,13.44,-86.62,132.31,13.44,-86.62,0.29,0.12,-0.68,-0.66
3.0,125.0,30.25,38.88,125.0,30.25,38.88,-0.41,0.39,-0.13,0.81,3.0,128.06,13.0,-91.75,128.06,13.0,-91.75,0.3,0.16,-0.7,-0.63
3.0,126.62,33.19,38.44,126.62,33.19,38.44,-0.41,0.4,-0.11,0.81,3.0,130.06,9.75,-95.31,130.06,9.75,-95.31,0.28,0.19,-0.71,-0.61
3.0,124.56,34.63,35.19,124.56,34.63,35.19,-0.43,0.39,-0.08,0.81,3.0,131.5,7.5,-96.69,131.5,7.5,-96.69,0.27,0.22,-0.72,-0.6
3.0,125.44,35.75,33.5,125.44,35.75,33.5,-0.42,0.4,-0.07,0.82,3.0,133.5,4.94,-98.56,133.5,4.94,-98.56,0.25,0.24,-0.72,-0.6
3.0,127.5,37.13,32.56,127.5,37.13,32.56,-0.4,0.4,-0.06,0.82,3.0,141.19,0.0,-101.37,141.19,0.0,-101.37,0.19,0.27,-0.73,-0.6
3.0,128.44,38.75,31.0,128.44,38.75,31.0,-0.39,0.4,-0.04,0.82,3.0,147.25,-4.75,-105.12,147.25,-4.75,-105.12,0.17,0.3,-0.75,-0.57
3.0,129.56,39.94,26.94,129.56,39.94,26.94,-0.39,0.39,-0.02,0.83,2.0,149.0,-6.44,-110.87,149.0,-6.44,-110.87,0.14,0.32,-0.77,-0.54
3.0,130.44,40.63,23.44,130.44,40.63,23.44,-0.38,0.39,0.01,0.84,2.0,156.13,-10.56,-114.81,156.13,-10.56,-114.81,0.1,0.35,-0.77,-0.52
3.0,131.19,41.56,19.37,131.19,41.56,19.37,-0.38,0.38,0.03,0.84,2.0,163.38,-14.94,-119.94,163.38,-14.94,-119.94,0.07,0.38,-0.78,-0.49
3.0,131.75,42.13,15.94,131.75,42.13,15.94,-0.38,0.37,0.05,0.85,2.0,163.69,-15.0,-126.06,163.69,-15.0,-126.06,0.06,0.4,-0.8,-0.45
3.0,131.88,42.06,12.56,131.88,42.06,12.56,-0.38,0.36,0.07,0.85,2.0,170.06,-17.5,-130.38,170.06,-17.5,-130.38,0.03,0.42,-0.8,-0.43
3.0,131.63,41.63,10.0,131.63,41.63,10.0,-0.38,0.35,0.09,0.85,2.0,178.94,-21.12,-134.31,178.94,-21.12,-134.31,-0.0,0.45,-0.8,-0.41
3.0,131.19,41.0,8.38,131.19,41.0,8.38,-0.39,0.34,0.09,0.85,2.0,183.56,-22.31,-138.69,183.56,-22.31,-138.69,-0.01,0.47,-0.8,-0.38
3.0,131.19,40.69,6.44,131.19,40.69,6.44,-0.39,0.33,0.11,0.85,2.0,298.13,-23.31,-140.94,298.13,-23.31,-140.94,-0.03,0.48,-0.79,-0.38
3.0,131.25,40.06,5.13,131.25,40.06,5.13,-0.39,0.32,0.11,0.86,2.0,295.5,-26.0,-142.88,295.5,-26.0,-142.88,-0.05,0.5,-0.78,-0.37
3.0,130.75,39.0,5.19,130.75,39.0,5.19,-0.4,0.32,0.1,0.85,2.0,293.69,-26.87,-145.81,293.69,-26.87,-145.81,-0.06,0.51,-0.78,-0.35
3.0,129.94,38.69,5.81,129.94,38.69,5.81,-0.4,0.32,0.1,0.85,2.0,292.31,-28.06,-147.44,292.31,-28.06,-147.44,-0.07,0.52,-0.77,-0.35
3.0,128.5,39.25,6.25,128.5,39.25,6.25,-0.41,0.33,0.11,0.84,2.0,290.25,-31.0,-148.94,290.25,-31.0,-148.94,-0.1,0.54,-0.76,-0.35
3.0,127.5,41.0,6.25,127.5,41.0,6.25,-0.42,0.34,0.12,0.84,2.0,288.88,-32.94,-150.88,288.88,-32.94,-150.88,-0.12,0.54,-0.76,-0.35
3.0,126.5,42.5,6.44,126.5,42.5,6.44,-0.42,0.35,0.12,0.83,2.0,288.19,-34.13,-152.63,288.19,-34.13,-152.63,-0.13,0.55,-0.75,-0.34
3.0,125.94,42.94,6.63,125.94,42.94,6.63,-0.42,0.35,0.13,0.83,2.0,287.5,-35.5,-153.94,287.5,-35.5,-153.94,-0.14,0.55,-0.75,-0.34
3.0,125.69,43.38,6.38,125.69,43.38,6.38,-0.42,0.35,0.13,0.83,2.0,287.13,-36.25,-155.19,287.13,-36.25,-155.19,-0.15,0.55,-0.75,-0.33
3.0,125.75,43.31,5.56,125.75,43.31,5.56,-0.42,0.34,0.14,0.83,2.0,286.69,-37.06,-156.56,286.69,-37.06,-156.56,-0.16,0.56,-0.75,-0.33
3.0,125.75,43.25,3.69,125.75,43.25,3.69,-0.42,0.34,0.15,0.83,2.0,286.44,-37.88,-157.75,286.44,-37.88,-157.75,-0.17,0.56,-0.74,-0.33
3.0,125.69,42.69,2.5,125.69,42.69,2.5,-0.42,0.33,0.15,0.83,2.0,286.13,-39.06,-158.44,286.13,-39.06,-158.44,-0.18,0.56,-0.74,-0.33
3.0,125.75,42.19,1.31,125.75,42.19,1.31,-0.43,0.32,0.16,0.83,2.0,285.81,-39.94,-159.75,285.81,-39.94,-159.75,-0.19,0.56,-0.74,-0.32
3.0,125.81,42.0,-0.12,125.81,42.0,-0.12,-0.42,0.32,0.17,0.83,2.0,286.56,-40.94,-160.56,286.56,-40.94,-160.56,-0.21,0.55,-0.74,-0.32
3.0,125.75,42.06,-1.31,125.75,42.06,-1.31,-0.43,0.32,0.17,0.83,2.0,248.5,-43.19,-161.25,248.5,-43.19,-161.25,-0.23,0.55,-0.74,-0.32
3.0,126.19,42.0,-1.0,126.19,42.0,-1.0,-0.42,0.32,0.17,0.83,2.0,251.0,-43.56,-161.94,251.0,-43.56,-161.94,-0.23,0.55,-0.74,-0.32
3.0,126.44,41.88,-0.5,126.44,41.88,-0.5,-0.42,0.32,0.16,0.83,2.0,251.31,-43.56,-161.81,251.31,-43.56,-161.81,-0.23,0.54,-0.74,-0.32
3.0,126.25,41.88,-0.56,126.25,41.88,-0.56,-0.42,0.32,0.17,0.83,2.0,253.63,-45.38,-162.31,253.63,-45.38,-162.31,-0.25,0.54,-0.73,-0.33
3.0,126.06,41.94,-0.88,126.06,41.94,-0.88,-0.42,0.32,0.17,0.83,2.0,254.38,-45.31,-162.25,254.38,-45.31,-162.25,-0.25,0.54,-0.74,-0.32
3.0,125.87,42.06,-1.56,125.87,42.06,-1.56,-0.42,0.31,0.18,0.83,2.0,255.5,-46.38,-162.19,255.5,-46.38,-162.19,-0.26,0.54,-0.73,-0.33
3.0,125.69,41.94,-2.19,125.69,41.94,-2.19,-0.43,0.31,0.18,0.83,2.0,255.94,-47.94,-161.63,255.94,-47.94,-161.63,-0.26,0.53,-0.73,-0.34
3.0,125.69,41.63,-2.44,125.69,41.63,-2.44,-0.43,0.31,0.18,0.83,2.0,256.25,-48.5,-161.0,256.25,-48.5,-161.0,-0.27,0.53,-0.73,-0.34
3.0,125.56,41.56,-2.38,125.56,41.56,-2.38,-0.43,0.31,0.18,0.83,2.0,258.44,-50.88,-160.44,258.44,-50.88,-160.44,-0.29,0.51,-0.72,-0.36
3.0,125.75,41.44,-2.13,125.75,41.44,-2.13,-0.43,0.31,0.17,0.83,2.0,258.44,-54.0,-156.5,258.44,-54.0,-156.5,-0.31,0.49,-0.72,-0.38
3.0,125.81,41.31,-2.31,125.81,41.31,-2.31,-0.42,0.31,0.18,0.83,2.0,258.25,-56.81,-152.56,258.25,-56.81,-152.56,-0.32,0.48,-0.71,-0.4
3.0,126.31,41.06,-2.56,126.31,41.06,-2.56,-0.42,0.3,0.18,0.84,2.0,259.88,-57.38,-152.06,259.88,-57.38,-152.06,-0.33,0.47,-0.72,-0.39
3.0,126.69,41.13,-2.94,126.69,41.13,-2.94,-0.42,0.31,0.18,0.84,2.0,261.44,-57.69,-152.56,261.44,-57.69,-152.56,-0.33,0.47,-0.72,-0.39
3.0,127.19,41.63,-2.88,127.19,41.63,-2.88,-0.41,0.31,0.18,0.84,2.0,261.63,-58.5,-152.94,261.63,-58.5,-152.94,-0.34,0.48,-0.71,-0.39
3.0,127.87,42.0,-3.13,127.87,42.0,-3.13,-0.41,0.31,0.18,0.84,2.0,262.75,-59.88,-154.19,262.75,-59.88,-154.19,-0.35,0.48,-0.7,-0.39
3.0,128.13,42.5,-3.88,128.13,42.5,-3.88,-0.41,0.32,0.19,0.84,2.0,265.38,-61.06,-156.31,265.38,-61.06,-156.31,-0.36,0.48,-0.7,-0.39
3.0,128.25,43.38,-4.88,128.25,43.38,-4.88,-0.4,0.32,0.19,0.83,2.0,265.25,-61.25,-153.38,265.25,-61.25,-153.38,-0.36,0.47,-0.71,-0.39
3.0,128.63,43.63,-4.81,128.63,43.63,-4.81,-0.4,0.32,0.19,0.84,2.0,264.63,-60.19,-154.06,264.63,-60.19,-154.06,-0.35,0.47,-0.71,-0.39
3.0,129.19,43.44,-4.94,129.19,43.44,-4.94,-0.4,0.32,0.19,0.84,2.0,265.13,-59.44,-156.69,265.13,-59.44,-156.69,-0.35,0.49,-0.71,-0.38
3.0,129.44,43.31,-4.25,129.44,43.31,-4.25,-0.4,0.32,0.18,0.84,2.0,268.88,-60.56,-159.06,268.88,-60.56,-159.06,-0.36,0.48,-0.71,-0.37
3.0,129.75,43.0,-3.44,129.75,43.0,-3.44,-0.39,0.32,0.18,0.84,2.0,271.06,-62.5,-160.88,271.06,-62.5,-160.88,-0.38,0.48,-0.7,-0.37
3.0,130.06,42.44,-3.06,130.06,42.44,-3.06,-0.39,0.32,0.17,0.85,2.0,273.88,-63.88,-163.19,273.88,-63.88,-163.19,-0.4,0.48,-0.69,-0.37
3.0,130.31,41.44,-2.44,130.31,41.44,-2.44,-0.39,0.31,0.16,0.85,2.0,276.56,-64.94,-165.63,276.56,-64.94,-165.63,-0.41,0.48,-0.69,-0.36
3.0,130.5,40.5,-2.25,130.5,40.5,-2.25,-0.39,0.31,0.16,0.85,2.0,278.94,-66.0,-167.5,278.94,-66.0,-167.5,-0.42,0.48,-0.68,-0.36
3.0,130.63,39.56,-2.19,130.63,39.56,-2.19,-0.39,0.3,0.15,0.86,2.0,280.94,-66.25,-167.94,280.94,-66.25,-167.94,-0.42,0.47,-0.69,-0.35
3.0,130.69,38.75,-2.0,130.69,38.75,-2.0,-0.39,0.29,0.15,0.86,2.0,281.88,-66.5,-166.5,281.88,-66.5,-166.5,-0.43,0.46,-0.7,-0.35
3.0,130.75,38.19,-1.81,130.75,38.19,-1.81,-0.39,0.29,0.15,0.86,2.0,283.19,-67.5,-165.75,283.19,-67.5,-165.75,-0.44,0.45,-0.7,-0.35
3.0,130.81,38.0,-1.56,130.81,38.0,-1.56,-0.39,0.29,0.15,0.86,2.0,281.69,-66.69,-162.13,281.69,-66.69,-162.13,-0.43,0.43,-0.71,-0.35
3.0,130.75,37.88,-1.63,130.75,37.88,-1.63,-0.39,0.29,0.15,0.86,2.0,280.75,-66.25,-158.25,280.75,-66.25,-158.25,-0.43,0.42,-0.71,-0.36
3.0,130.75,38.5,-1.69,130.75,38.5,-1.69,-0.39,0.3,0.15,0.86,2.0,279.88,-66.94,-154.94,279.88,-66.94,-154.94,-0.44,0.41,-0.71,-0.37
3.0,130.81,39.13,-1.56,130.81,39.13,-1.56,-0.39,0.3,0.15,0.86,2.0,281.31,-69.12,-152.88,281.31,-69.12,-152.88,-0.45,0.4,-0.71,-0.37
3.0,130.88,39.38,-1.31,130.88,39.38,-1.31,-0.39,0.3,0.15,0.86,2.0,282.31,-70.44,-151.25,282.31,-70.44,-151.25,-0.46,0.39,-0.7,-0.37
3.0,130.88,39.38,-1.12,130.88,39.38,-1.12,-0.39,0.3,0.15,0.86,2.0,282.63,-71.19,-149.88,282.63,-71.19,-149.88,-0.47,0.39,-0.7,-0.38
3.0,130.81,39.44,-1.31,130.81,39.44,-1.31,-0.39,0.3,0.15,0.86,2.0,283.44,-73.25,-146.75,283.44,-73.25,-146.75,-0.48,0.38,-0.69,-0.38
3.0,130.63,39.69,-1.56,130.63,39.69,-1.56,-0.39,0.3,0.15,0.85,3.0,283.88,-73.94,-145.63,283.88,-73.94,-145.63,-0.49,0.38,-0.68,-0.38
3.0,130.5,40.06,-1.56,130.5,40.06,-1.56,-0.39,0.31,0.15,0.85,3.0,285.25,-75.75,-142.88,285.25,-75.75,-142.88,-0.51,0.37,-0.67,-0.39
3.0,130.38,40.56,-1.94,130.38,40.56,-1.94,-0.39,0.31,0.16,0.85,3.0,286.81,-77.87,-138.69,286.81,-77.87,-138.69,-0.53,0.36,-0.67,-0.39
3.0,130.63,41.13,-1.69,130.63,41.13,-1.69,-0.39,0.32,0.16,0.85,3.0,288.44,-79.12,-135.69,288.44,-79.12,-135.69,-0.54,0.35,-0.66,-0.38
3.0,131.06,41.56,-0.69,131.06,41.56,-0.69,-0.39,0.32,0.15,0.85,3.0,289.56,-79.56,-135.06,289.56,-79.56,-135.06,-0.54,0.35,-0.66,-0.38
3.0,131.75,41.75,-0.44,131.75,41.75,-0.44,-0.38,0.32,0.15,0.85,3.0,289.25,-79.56,-134.69,289.25,-79.56,-134.69,-0.54,0.35,-0.66,-0.38
3.0,132.06,41.69,-0.88,132.06,41.69,-0.88,-0.38,0.32,0.15,0.85,3.0,288.31,-79.37,-136.13,288.31,-79.37,-136.13,-0.53,0.36,-0.66,-0.39
3.0,132.38,41.0,-1.31,132.38,41.0,-1.31,-0.38,0.32,0.15,0.86,3.0,287.5,-78.56,-139.88,287.5,-78.56,-139.88,-0.52,0.37,-0.67,-0.38
3.0,132.75,40.25,-1.31,132.75,40.25,-1.31,-0.38,0.31,0.15,0.86,3.0,286.0,-76.44,-143.63,286.0,-76.44,-143.63,-0.5,0.37,-0.68,-0.38
3.0,133.19,39.75,-1.0,133.19,39.75,-1.0,-0.37,0.31,0.14,0.86,3.0,284.38,-74.56,-144.38,284.38,-74.56,-144.38,-0.49,0.37,-0.69,-0.38
3.0,133.38,39.69,-0.63,133.38,39.69,-0.63,-0.37,0.31,0.14,0.86,3.0,283.88,-73.44,-143.06,283.88,-73.44,-143.06,-0.49,0.36,-0.7,-0.38
3.0,133.5,39.88,-0.56,133.5,39.88,-0.56,-0.37,0.31,0.14,0.86,3.0,284.75,-73.06,-141.81,284.75,-73.06,-141.81,-0.49,0.35,-0.7,-0.38
3.0,133.56,40.0,-0.63,133.56,40.0,-0.63,-0.37,0.31,0.14,0.86,3.0,285.31,-73.75,-139.5,285.31,-73.75,-139.5,-0.5,0.35,-0.69,-0.38
3.0,133.56,40.19,-0.69,133.56,40.19,-0.69,-0.37,0.31,0.14,0.86,3.0,285.38,-74.5,-137.44,285.38,-74.5,-137.44,-0.51,0.35,-0.69,-0.38
3.0,133.75,40.31,-0.37,133.75,40.31,-0.37,-0.37,0.32,0.14,0.86,3.0,286.0,-75.5,-135.06,286.0,-75.5,-135.06,-0.51,0.34,-0.68,-0.39
3.0,133.88,40.31,-0.69,133.88,40.31,-0.69,-0.37,0.31,0.14,0.86,3.0,283.19,-74.81,-127.94,283.19,-74.81,-127.94,-0.51,0.34,-0.68,-0.41
3.0,134.13,40.19,-1.31,134.13,40.19,-1.31,-0.37,0.31,0.14,0.87,3.0,281.94,-76.19,-121.81,281.94,-76.19,-121.81,-0.52,0.35,-0.66,-0.42
3.0,134.38,40.0,-2.0,134.38,40.0,-2.0,-0.36,0.31,0.15,0.87,3.0,281.5,-78.31,-113.06,281.5,-78.31,-113.06,-0.53,0.35,-0.65,-0.43
3.0,134.63,39.81,-2.69,134.63,39.81,-2.69,-0.36,0.31,0.15,0.87,3.0,281.69,-79.19,-107.81,281.69,-79.19,-107.81,-0.54,0.35,-0.63,-0.44
3.0,134.75,39.56,-3.25,134.75,39.56,-3.25,-0.36,0.3,0.15,0.87,3.0,281.75,-80.12,-95.5,281.75,-80.12,-95.5,-0.55,0.35,-0.62,-0.45
3.0,134.88,39.44,-3.5,134.88,39.44,-3.5,-0.36,0.3,0.15,0.87,3.0,281.56,-80.81,-78.94,281.56,-80.81,-78.94,-0.56,0.35,-0.59,-0.46
3.0,135.13,39.5,-3.13,135.13,39.5,-3.13,-0.36,0.3,0.15,0.87,3.0,281.75,-81.0,-55.75,281.75,-81.0,-55.75,-0.58,0.36,-0.57,-0.47
3.0,135.38,39.44,-2.56,135.38,39.44,-2.56,-0.36,0.31,0.14,0.87,3.0,283.5,-80.81,-31.19,283.5,-80.81,-31.19,-0.6,0.37,-0.54,-0.46
3.0,135.63,39.5,-1.88,135.63,39.5,-1.88,-0.35,0.31,0.14,0.87,3.0,285.94,-82.12,-9.75,285.94,-82.12,-9.75,-0.6,0.39,-0.53,-0.45
3.0,135.81,39.63,-1.56,135.81,39.63,-1.56,-0.35,0.31,0.14,0.87,3.0,286.19,-83.56,-0.63,286.19,-83.56,-0.63,-0.59,0.39,-0.54,-0.45
3.0,135.81,39.81,-1.56,135.81,39.81,-1.56,-0.35,0.31,0.14,0.87,3.0,286.31,-86.44,-1.56,286.31,-86.44,-1.56,-0.58,0.4,-0.57,-0.43
3.0,135.94,40.0,-1.56,135.94,40.0,-1.56,-0.35,0.31,0.14,0.87,3.0,287.0,-87.56,-2.38,287.0,-87.56,-2.38,-0.57,0.4,-0.59,-0.42
3.0,136.0,40.13,-1.44,136.0,40.13,-1.44,-0.35,0.31,0.14,0.87,3.0,286.25,-86.25,-176.69,286.25,-86.25,-176.69,-0.55,0.4,-0.6,-0.42
3.0,136.13,40.06,-1.31,136.13,40.06,-1.31,-0.35,0.31,0.14,0.87,3.0,285.81,-86.06,-176.56,285.81,-86.06,-176.56,-0.56,0.4,-0.6,-0.42
3.0,136.13,40.0,-1.31,136.13,40.0,-1.31,-0.35,0.31,0.14,0.87,3.0,285.81,-86.94,-177.0,285.81,-86.94,-177.0,-0.56,0.4,-0.59,-0.42
3.0,136.13,40.0,-1.12,136.13,40.0,-1.12,-0.35,0.31,0.13,0.87,3.0,286.31,-87.5,-2.38,286.31,-87.5,-2.38,-0.57,0.4,-0.58,-0.43
3.0,136.25,40.06,-0.75,136.25,40.06,-0.75,-0.35,0.32,0.13,0.87,3.0,287.19,-87.06,-1.56,287.19,-87.06,-1.56,-0.58,0.39,-0.56,-0.43
3.0,136.31,40.06,-0.63,136.31,40.06,-0.63,-0.35,0.32,0.13,0.87,3.0,288.25,-86.31,-0.44,288.25,-86.31,-0.44,-0.59,0.4,-0.56,-0.43
3.0,136.31,40.06,-0.63,136.31,40.06,-0.63,-0.35,0.32,0.13,0.87,3.0,288.88,-86.19,0.56,288.88,-86.19,0.56,-0.59,0.41,-0.55,-0.43
3.0,136.31,40.19,-0.94,136.31,40.19,-0.94,-0.35,0.32,0.14,0.87,3.0,287.69,-86.31,0.69,287.69,-86.31,0.69,-0.59,0.41,-0.55,-0.43
3.0,136.31,40.19,-1.56,136.31,40.19,-1.56,-0.35,0.31,0.14,0.87,3.0,286.5,-85.81,0.94,286.5,-85.81,0.94,-0.59,0.42,-0.54,-0.44
3.0,136.25,40.25,-1.94,136.25,40.25,-1.94,-0.35,0.31,0.14,0.87,3.0,285.69,-85.5,1.12,285.69,-85.5,1.12,-0.58,0.42,-0.53,-0.44
3.0,136.25,40.31,-2.06,136.25,40.31,-2.06,-0.35,0.31,0.14,0.87,3.0,285.38,-85.94,1.0,285.38,-85.94,1.0,-0.58,0.42,-0.54,-0.44
3.0,136.31,40.5,-1.81,136.31,40.5,-1.81,-0.35,0.32,0.14,0.87,3.0,285.0,-86.75,0.69,285.0,-86.75,0.69,-0.58,0.43,-0.54,-0.44
3.0,136.5,40.69,-1.37,136.5,40.69,-1.37,-0.35,0.32,0.14,0.87,3.0,284.88,-87.19,0.56,284.88,-87.19,0.56,-0.57,0.43,-0.54,-0.44
3.0,136.69,40.69,-0.94,136.69,40.69,-0.94,-0.35,0.32,0.13,0.87,3.0,285.13,-87.81,0.31,285.13,-87.81,0.31,-0.57,0.42,-0.55,-0.44
3.0,136.81,40.75,-0.63,136.81,40.75,-0.63,-0.34,0.32,0.13,0.87,3.0,285.88,-87.87,0.31,285.88,-87.87,0.31,-0.58,0.42,-0.55,-0.43
3.0,136.94,40.81,-0.5,136.94,40.81,-0.5,-0.34,0.32,0.13,0.87,3.0,286.31,-87.75,0.31,286.31,-87.75,0.31,-0.58,0.42,-0.55,-0.43
3.0,137.0,40.88,-0.5,137.0,40.88,-0.5,-0.34,0.32,0.13,0.87,3.0,286.69,-87.0,0.63,286.69,-87.0,0.63,-0.58,0.42,-0.55,-0.43
3.0,137.06,40.94,-0.5,137.06,40.94,-0.5,-0.34,0.32,0.13,0.87,3.0,287.38,-85.75,1.19,287.38,-85.75,1.19,-0.59,0.42,-0.54,-0.43
3.0,137.19,40.94,-0.5,137.19,40.94,-0.5,-0.34,0.32,0.13,0.87,3.0,287.69,-85.12,1.63,287.69,-85.12,1.63,-0.59,0.42,-0.54,-0.43
3.0,137.25,40.88,-0.63,137.25,40.88,-0.63,-0.34,0.32,0.13,0.87,3.0,287.31,-85.37,1.69,287.31,-85.37,1.69,-0.59,0.42,-0.53,-0.44
3.0,137.38,40.94,-0.63,137.38,40.94,-0.63,-0.34,0.32,0.13,0.87,3.0,286.63,-85.12,1.94,286.63,-85.12,1.94,-0.59,0.42,-0.53,-0.44
3.0,137.44,41.0,-0.63,137.44,41.0,-0.63,-0.34,0.32,0.13,0.87,3.0,286.13,-85.0,2.25,286.13,-85.0,2.25,-0.59,0.43,-0.53,-0.44
3.0,137.63,41.0,-0.5,137.63,41.0,-0.5,-0.34,0.33,0.13,0.87,3.0,285.63,-84.75,2.56,285.63,-84.75,2.56,-0.59,0.43,-0.52,-0.44
3.0,137.75,41.0,-0.44,137.75,41.0,-0.44,-0.34,0.33,0.13,0.87,3.0,285.19,-84.31,2.94,285.19,-84.31,2.94,-0.58,0.44,-0.51,-0.45
3.0,137.88,40.81,-0.5,137.88,40.81,-0.5,-0.34,0.32,0.13,0.87,3.0,284.69,-83.5,3.38,284.69,-83.5,3.38,-0.59,0.44,-0.5,-0.45
3.0,138.0,40.69,-0.56,138.0,40.69,-0.56,-0.34,0.32,0.13,0.88,3.0,285.0,-82.25,31.56,285.0,-82.25,31.56,-0.59,0.44,-0.5,-0.45
3.0,138.19,40.44,-0.56,138.19,40.44,-0.56,-0.33,0.32,0.13,0.88,3.0,285.0,-81.75,32.88,285.0,-81.75,32.88,-0.59,0.44,-0.49,-0.46
3.0,138.31,40.31,-0.44,138.31,40.31,-0.44,-0.33,0.32,0.13,0.88,3.0,285.06,-81.06,35.31,285.06,-81.06,35.31,-0.6,0.45,-0.48,-0.46
3.0,138.38,40.19,-0.25,138.38,40.19,-0.25,-0.33,0.32,0.12,0.88,3.0,285.38,-80.25,37.13,285.38,-80.25,37.13,-0.6,0.45,-0.48,-0.46
3.0,138.44,40.19,0.0,138.44,40.19,0.0,-0.33,0.32,0.12,0.88,3.0,285.63,-79.87,37.88,285.63,-79.87,37.88,-0.6,0.45,-0.48,-0.46
3.0,138.5,40.38,0.12,138.5,40.38,0.12,-0.33,0.32,0.12,0.88,3.0,285.81,-79.44,38.0,285.81,-79.44,38.0,-0.6,0.45,-0.47,-0.46
3.0,138.56,40.5,0.37,138.56,40.5,0.37,-0.33,0.33,0.12,0.88,3.0,286.13,-78.94,38.44,286.13,-78.94,38.44,-0.61,0.45,-0.47,-0.46
3.0,138.63,40.69,0.69,138.63,40.69,0.69,-0.33,0.33,0.12,0.88,3.0,286.38,-78.94,39.06,286.38,-78.94,39.06,-0.61,0.45,-0.47,-0.45
3.0,138.69,40.75,0.94,138.69,40.75,0.94,-0.33,0.33,0.12,0.88,3.0,286.31,-79.25,39.56,286.31,-79.25,39.56,-0.61,0.45,-0.47,-0.45
3.0,138.75,40.81,1.12,138.75,40.81,1.12,-0.33,0.33,0.11,0.88,3.0,286.38,-79.44,40.25,286.38,-79.44,40.25,-0.6,0.45,-0.47,-0.45
3.0,138.81,40.88,1.25,138.81,40.88,1.25,-0.33,0.33,0.11,0.88,3.0,286.31,-79.56,40.88,286.31,-79.56,40.88,-0.6,0.45,-0.47,-0.45
3.0,138.88,40.81,1.25,138.88,40.81,1.25,-0.33,0.33,0.11,0.88,3.0,286.13,-79.56,41.38,286.13,-79.56,41.38,-0.6,0.46,-0.47,-0.45
3.0,138.94,40.88,1.37,138.94,40.88,1.37,-0.33,0.33,0.11,0.88,3.0,286.0,-79.44,41.25,286.0,-79.44,41.25,-0.6,0.46,-0.47,-0.45
3.0,139.0,40.88,1.5,139.0,40.88,1.5,-0.33,0.33,0.11,0.88,3.0,286.13,-78.81,40.38,286.13,-78.81,40.38,-0.61,0.46,-0.47,-0.46
3.0,139.0,40.81,1.5,139.0,40.81,1.5,-0.33,0.33,0.11,0.88,3.0,286.19,-77.87,39.69,286.19,-77.87,39.69,-0.61,0.46,-0.46,-0.46
3.0,139.06,40.75,1.56,139.06,40.75,1.56,-0.33,0.33,0.11,0.88,3.0,286.13,-77.06,39.44,286.13,-77.06,39.44,-0.61,0.46,-0.45,-0.46
3.0,139.06,40.69,1.63,139.06,40.69,1.63,-0.33,0.33,0.11,0.88,3.0,285.94,-76.31,39.44,285.94,-76.31,39.44,-0.61,0.46,-0.45,-0.46
3.0,139.06,40.69,1.69,139.06,40.69,1.69,-0.33,0.33,0.11,0.88,3.0,285.69,-75.87,39.75,285.69,-75.87,39.75,-0.61,0.46,-0.44,-0.47
3.0,139.06,40.63,1.63,139.06,40.63,1.63,-0.33,0.33,0.11,0.88,3.0,285.31,-75.81,40.19,285.31,-75.81,40.19,-0.61,0.46,-0.44,-0.47
3.0,139.06,40.63,1.69,139.06,40.63,1.69,-0.33,0.33,0.11,0.88,3.0,285.06,-75.87,40.5,285.06,-75.87,40.5,-0.61,0.46,-0.44,-0.47
3.0,139.06,40.69,1.81,139.06,40.69,1.81,-0.33,0.33,0.11,0.88,3.0,284.94,-75.81,40.63,284.94,-75.81,40.63,-0.61,0.47,-0.44,-0.47
3.0,139.06,40.75,1.94,139.06,40.75,1.94,-0.33,0.33,0.11,0.88,3.0,284.81,-75.69,40.63,284.81,-75.69,40.63,-0.61,0.47,-0.43,-0.47
3.0,139.0,40.88,2.0,139.0,40.88,2.0,-0.33,0.33,0.11,0.88,3.0,284.63,-75.37,40.25,284.63,-75.37,40.25,-0.61,0.47,-0.43,-0.47
3.0,139.0,40.94,2.13,139.0,40.94,2.13,-0.33,0.33,0.11,0.88,3.0,284.69,-75.0,39.88,284.69,-75.0,39.88,-0.61,0.47,-0.43,-0.47
3.0,139.06,40.94,2.25,139.06,40.94,2.25,-0.33,0.33,0.11,0.88,3.0,284.81,-74.5,39.63,284.81,-74.5,39.63,-0.62,0.47,-0.42,-0.47
3.0,139.06,40.94,2.31,139.06,40.94,2.31,-0.33,0.33,0.11,0.88,3.0,285.06,-73.94,39.31,285.06,-73.94,39.31,-0.62,0.46,-0.42,-0.47
3.0,139.63,40.94,2.38,139.63,40.94,2.38,-0.32,0.33,0.1,0.88,3.0,285.44,-73.81,38.94,285.44,-73.81,38.94,-0.62,0.46,-0.42,-0.47
3.0,139.63,40.88,2.31,139.63,40.88,2.31,-0.32,0.33,0.11,0.88,3.0,286.06,-73.94,38.06,286.06,-73.94,38.06,-0.62,0.46,-0.43,-0.47
3.0,139.69,40.88,2.25,139.69,40.88,2.25,-0.32,0.33,0.11,0.88,3.0,286.88,-73.5,37.31,286.88,-73.5,37.31,-0.63,0.45,-0.43,-0.47
3.0,139.88,40.94,2.25,139.88,40.94,2.25,-0.32,0.33,0.1,0.88,3.0,287.06,-73.19,37.31,287.06,-73.19,37.31,-0.63,0.45,-0.42,-0.47
3.0,139.88,40.94,2.31,139.88,40.94,2.31,-0.32,0.33,0.1,0.88,3.0,287.13,-72.69,37.5,287.13,-72.69,37.5,-0.63,0.45,-0.42,-0.47
3.0,139.94,40.94,2.31,139.94,40.94,2.31,-0.32,0.33,0.1,0.88,3.0,287.13,-72.31,37.69,287.13,-72.31,37.69,-0.63,0.45,-0.42,-0.47
3.0,139.94,40.94,2.25,139.94,40.94,2.25,-0.32,0.33,0.1,0.88,3.0,287.0,-72.06,37.69,287.0,-72.06,37.69,-0.63,0.45,-0.41,-0.47
3.0,139.94,40.94,2.25,139.94,40.94,2.25,-0.32,0.33,0.1,0.88,3.0,286.88,-71.87,37.88,286.88,-71.87,37.88,-0.63,0.46,-0.41,-0.47
3.0,139.94,40.94,2.25,139.94,40.94,2.25,-0.32,0.33,0.1,0.88,3.0,286.81,-71.31,38.0,286.81,-71.31,38.0,-0.64,0.46,-0.4,-0.47
3.0,139.94,41.0,2.31,139.94,41.0,2.31,-0.32,0.34,0.1,0.88,3.0,286.88,-70.56,38.19,286.88,-70.56,38.19,-0.64,0.46,-0.4,-0.47
3.0,140.0,41.06,2.25,140.0,41.06,2.25,-0.32,0.34,0.1,0.88,3.0,287.0,-69.87,38.19,287.0,-69.87,38.19,-0.64,0.46,-0.39,-0.47
3.0,140.0,41.13,2.25,140.0,41.13,2.25,-0.32,0.34,0.11,0.88,3.0,287.19,-68.81,38.06,287.19,-68.81,38.06,-0.65,0.46,-0.38,-0.48
3.0,140.19,41.13,2.25,140.19,41.13,2.25,-0.32,0.34,0.1,0.88,3.0,287.69,-66.81,38.44,287.69,-66.81,38.44,-0.65,0.46,-0.37,-0.48
3.0,140.19,41.06,2.25,140.19,41.06,2.25,-0.32,0.34,0.1,0.88,3.0,288.5,-64.56,40.06,288.5,-64.56,40.06,-0.66,0.46,-0.35,-0.48
3.0,140.19,41.0,2.19,140.19,41.0,2.19,-0.32,0.33,0.1,0.88,3.0,288.81,-64.19,40.75,288.81,-64.19,40.75,-0.66,0.46,-0.35,-0.47
3.0,140.25,40.88,2.13,140.25,40.88,2.13,-0.32,0.33,0.1,0.88,3.0,288.75,-65.69,41.44,288.75,-65.69,41.44,-0.65,0.47,-0.37,-0.47
3.0,140.13,40.69,2.19,140.13,40.69,2.19,-0.32,0.33,0.1,0.88,3.0,288.25,-68.69,42.19,288.25,-68.69,42.19,-0.64,0.47,-0.39,-0.47
3.0,140.19,40.69,2.38,140.19,40.69,2.38,-0.32,0.33,0.1,0.88,3.0,287.88,-71.19,43.44,287.88,-71.19,43.44,-0.63,0.47,-0.41,-0.46
3.0,140.19,40.75,2.44,140.19,40.75,2.44,-0.32,0.33,0.1,0.88,3.0,288.0,-72.19,44.44,288.0,-72.19,44.44,-0.63,0.47,-0.41,-0.46
3.0,140.38,40.81,2.44,140.38,40.81,2.44,-0.32,0.33,0.1,0.88,3.0,288.06,-71.87,44.44,288.06,-71.87,44.44,-0.63,0.47,-0.41,-0.46
3.0,140.38,40.81,2.44,140.38,40.81,2.44,-0.32,0.33,0.1,0.88,3.0,288.13,-70.87,43.88,288.13,-70.87,43.88,-0.64,0.47,-0.4,-0.46
3.0,140.38,40.81,2.44,140.38,40.81,2.44,-0.32,0.33,0.1,0.88,3.0,288.13,-70.62,43.69,288.13,-70.62,43.69,-0.64,0.47,-0.4,-0.46
3.0,140.44,40.81,2.38,140.44,40.81,2.38,-0.32,0.33,0.1,0.88,3.0,288.0,-71.19,44.19,288.0,-71.19,44.19,-0.63,0.47,-0.41,-0.46
3.0,140.5,40.88,2.38,140.5,40.88,2.38,-0.32,0.33,0.1,0.88,3.0,287.94,-72.25,45.19,287.94,-72.25,45.19,-0.63,0.47,-0.42,-0.46
3.0,140.5,40.81,2.31,140.5,40.81,2.31,-0.32,0.33,0.1,0.88,3.0,287.94,-74.62,47.06,287.94,-74.62,47.06,-0.62,0.47,-0.44,-0.45
3.0,140.63,40.81,2.19,140.63,40.81,2.19,-0.32,0.33,0.1,0.88,3.0,288.19,-77.12,48.75,288.19,-77.12,48.75,-0.61,0.46,-0.46,-0.44
3.0,140.63,40.88,2.13,140.63,40.88,2.13,-0.32,0.33,0.1,0.88,3.0,289.44,-78.37,48.75,289.44,-78.37,48.75,-0.62,0.45,-0.48,-0.43
3.0,140.75,40.94,2.06,140.75,40.94,2.06,-0.31,0.33,0.1,0.88,3.0,290.44,-77.81,46.19,290.44,-77.81,46.19,-0.62,0.45,-0.47,-0.43
3.0,140.75,41.0,2.06,140.75,41.0,2.06,-0.31,0.34,0.1,0.88,3.0,290.63,-76.56,43.56,290.63,-76.56,43.56,-0.63,0.45,-0.46,-0.43
3.0,140.81,41.19,2.31,140.81,41.19,2.31,-0.31,0.34,0.1,0.88,3.0,290.88,-75.75,42.31,290.88,-75.75,42.31,-0.63,0.45,-0.46,-0.44
3.0,140.88,41.25,2.44,140.88,41.25,2.44,-0.31,0.34,0.1,0.88,3.0,291.06,-75.56,42.0,291.06,-75.56,42.0,-0.63,0.45,-0.46,-0.43
3.0,140.94,41.25,2.38,140.94,41.25,2.38,-0.31,0.34,0.1,0.88,3.0,291.13,-76.37,42.94,291.13,-76.37,42.94,-0.63,0.45,-0.47,-0.43
3.0,141.0,41.19,2.19,141.0,41.19,2.19,-0.31,0.34,0.1,0.88,3.0,291.13,-77.56,44.5,291.13,-77.56,44.5,-0.63,0.44,-0.48,-0.43
3.0,140.94,41.06,1.94,140.94,41.06,1.94,-0.31,0.34,0.1,0.88,3.0,291.25,-77.5,43.63,291.25,-77.5,43.63,-0.63,0.44,-0.47,-0.43
3.0,141.0,41.0,1.75,141.0,41.0,1.75,-0.31,0.33,0.11,0.88,3.0,291.63,-76.31,40.94,291.63,-76.31,40.94,-0.64,0.44,-0.46,-0.43
3.0,141.0,41.0,1.69,141.0,41.0,1.69,-0.31,0.33,0.11,0.88,3.0,292.06,-74.81,38.69,292.06,-74.81,38.69,-0.65,0.43,-0.45,-0.43
3.0,141.13,41.06,1.75,141.13,41.06,1.75,-0.31,0.34,0.11,0.88,3.0,292.38,-73.87,37.88,292.38,-73.87,37.88,-0.65,0.43,-0.45,-0.43
3.0,141.19,41.13,1.75,141.19,41.13,1.75,-0.31,0.34,0.11,0.88,3.0,292.38,-74.69,38.5,292.38,-74.69,38.5,-0.64,0.43,-0.46,-0.43
3.0,141.19,41.13,1.75,141.19,41.13,1.75,-0.31,0.34,0.11,0.88,3.0,292.31,-75.94,39.81,292.31,-75.94,39.81,-0.64,0.43,-0.47,-0.43
3.0,141.31,41.13,1.69,141.31,41.13,1.69,-0.31,0.34,0.11,0.88,3.0,292.19,-76.37,40.5,292.19,-76.37,40.5,-0.64,0.44,-0.47,-0.43
3.0,141.25,41.13,1.56,141.25,41.13,1.56,-0.31,0.34,0.11,0.88,3.0,292.31,-76.19,40.25,292.31,-76.19,40.25,-0.64,0.43,-0.47,-0.43
3.0,141.25,41.19,1.5,141.25,41.19,1.5,-0.31,0.34,0.11,0.88,3.0,292.63,-76.0,39.69,292.63,-76.0,39.69,-0.64,0.43,-0.47,-0.43
3.0,141.25,41.31,1.44,141.25,41.31,1.44,-0.31,0.34,0.11,0.88,3.0,292.88,-75.69,39.06,292.88,-75.69,39.06,-0.65,0.43,-0.47,-0.43
3.0,141.25,41.38,1.56,141.25,41.38,1.56,-0.31,0.34,0.11,0.88,3.0,293.31,-74.56,37.81,293.31,-74.56,37.81,-0.65,0.43,-0.46,-0.43
3.0,141.25,41.5,1.63,141.25,41.5,1.63,-0.31,0.34,0.11,0.88,3.0,293.75,-73.44,36.94,293.75,-73.44,36.94,-0.66,0.43,-0.45,-0.43
3.0,141.25,41.56,1.69,141.25,41.56,1.69,-0.31,0.34,0.11,0.88,3.0,294.13,-72.75,36.69,294.13,-72.75,36.69,-0.66,0.42,-0.45,-0.43
3.0,141.25,41.56,1.63,141.25,41.56,1.63,-0.31,0.34,0.11,0.88,3.0,294.19,-73.12,36.88,294.19,-73.12,36.88,-0.66,0.42,-0.45,-0.43
3.0,141.25,41.5,1.63,141.25,41.5,1.63,-0.31,0.34,0.11,0.88,3.0,294.13,-73.69,37.31,294.13,-73.69,37.31,-0.66,0.43,-0.46,-0.42
3.0,141.31,41.5,1.56,141.31,41.5,1.56,-0.31,0.34,0.11,0.88,3.0,294.13,-74.37,37.88,294.13,-74.37,37.88,-0.65,0.43,-0.46,-0.42
3.0,141.31,41.44,1.44,141.31,41.44,1.44,-0.31,0.34,0.11,0.88,3.0,294.25,-74.94,38.06,294.25,-74.94,38.06,-0.65,0.42,-0.47,-0.42
3.0,141.31,41.44,1.31,141.31,41.44,1.31,-0.31,0.34,0.11,0.88,3.0,294.75,-74.87,37.63,294.75,-74.87,37.63,-0.65,0.42,-0.47,-0.42
3.0,141.25,41.5,1.31,141.25,41.5,1.31,-0.31,0.34,0.11,0.88,3.0,295.19,-75.81,38.25,295.19,-75.81,38.25,-0.65,0.42,-0.48,-0.41
3.0,141.25,41.63,1.31,141.25,41.63,1.31,-0.31,0.34,0.11,0.88,3.0,295.63,-78.0,40.44,295.63,-78.0,40.44,-0.64,0.42,-0.5,-0.4
3.0,141.31,41.75,1.44,141.31,41.75,1.44,-0.31,0.34,0.11,0.88,3.0,296.81,-80.31,43.06,296.81,-80.31,43.06,-0.64,0.41,-0.52,-0.39
3.0,141.38,41.88,1.63,141.38,41.88,1.63,-0.31,0.34,0.11,0.88,3.0,297.5,-81.69,45.38,297.5,-81.69,45.38,-0.63,0.4,-0.54,-0.38
3.0,141.5,41.88,1.75,141.5,41.88,1.75,-0.31,0.34,0.11,0.88,3.0,298.69,-83.56,4.81,298.69,-83.56,4.81,-0.63,0.39,-0.56,-0.37
3.0,141.5,41.81,1.37,141.5,41.81,1.37,-0.31,0.34,0.11,0.88,3.0,299.94,-84.06,4.44,299.94,-84.06,4.44,-0.63,0.38,-0.56,-0.36
3.0,141.5,41.69,0.88,141.5,41.69,0.88,-0.31,0.34,0.11,0.88,3.0,300.63,-83.94,4.38,300.63,-83.94,4.38,-0.64,0.38,-0.57,-0.36
3.0,141.56,41.56,0.69,141.56,41.56,0.69,-0.31,0.34,0.11,0.88,3.0,301.13,-84.94,4.13,301.13,-84.94,4.13,-0.63,0.38,-0.58,-0.35
3.0,141.69,41.5,0.63,141.69,41.5,0.63,-0.31,0.34,0.11,0.88,3.0,301.19,-86.06,3.75,301.19,-86.06,3.75,-0.62,0.38,-0.59,-0.35
3.0,141.75,41.5,0.5,141.75,41.5,0.5,-0.31,0.34,0.11,0.88,3.0,300.81,-86.19,3.75,300.81,-86.19,3.75,-0.62,0.39,-0.59,-0.35
3.0,141.75,41.56,0.44,141.75,41.56,0.44,-0.31,0.34,0.11,0.88,3.0,299.94,-86.0,3.88,299.94,-86.0,3.88,-0.62,0.39,-0.58,-0.36
3.0,141.69,41.69,0.44,141.69,41.69,0.44,-0.31,0.34,0.11,0.88,3.0,299.19,-85.87,3.88,299.19,-85.87,3.88,-0.62,0.39,-0.58,-0.36
3.0,141.69,41.75,0.5,141.69,41.75,0.5,-0.31,0.34,0.11,0.88,3.0,298.56,-85.81,3.88,298.56,-85.81,3.88,-0.61,0.4,-0.58,-0.37
3.0,141.69,41.75,0.63,141.69,41.75,0.63,-0.31,0.34,0.11,0.88,3.0,298.38,-85.56,3.94,298.38,-85.56,3.94,-0.62,0.4,-0.57,-0.37
3.0,141.75,41.75,0.69,141.75,41.75,0.69,-0.31,0.34,0.11,0.88,3.0,298.25,-85.31,3.94,298.25,-85.31,3.94,-0.62,0.4,-0.57,-0.37
3.0,141.69,41.75,0.69,141.69,41.75,0.69,-0.31,0.34,0.11,0.88,3.0,298.19,-85.69,3.75,298.19,-85.69,3.75,-0.62,0.39,-0.57,-0.37
3.0,141.69,41.75,0.69,141.69,41.75,0.69,-0.31,0.34,0.11,0.88,3.0,298.38,-85.94,3.63,298.38,-85.94,3.63,-0.62,0.39,-0.57,-0.37
3.0,141.75,41.75,0.81,141.75,41.75,0.81,-0.31,0.34,0.11,0.88,3.0,298.63,-85.75,3.56,298.63,-85.75,3.56,-0.62,0.39,-0.57,-0.37
3.0,141.75,41.81,0.88,141.75,41.81,0.88,-0.31,0.34,0.11,0.88,3.0,299.06,-85.75,3.5,299.06,-85.75,3.5,-0.62,0.39,-0.57,-0.37
3.0,141.75,41.81,0.88,141.75,41.81,0.88,-0.31,0.34,0.11,0.88,3.0,299.63,-85.75,3.5,299.63,-85.75,3.5,-0.62,0.38,-0.58,-0.36
3.0,141.75,41.88,0.94,141.75,41.88,0.94,-0.31,0.34,0.11,0.88,3.0,300.19,-85.75,3.5,300.19,-85.75,3.5,-0.63,0.38,-0.58,-0.36
3.0,141.81,41.88,1.06,141.81,41.88,1.06,-0.31,0.34,0.11,0.88,3.0,300.81,-85.69,3.56,300.81,-85.69,3.56,-0.63,0.38,-0.58,-0.36
3.0,141.81,41.88,1.12,141.81,41.88,1.12,-0.31,0.34,0.11,0.88,3.0,301.0,-85.94,3.44,301.0,-85.94,3.44,-0.63,0.38,-0.58,-0.35
3.0,141.81,41.88,1.19,141.81,41.88,1.19,-0.31,0.34,0.11,0.88,3.0,301.0,-86.12,3.44,301.0,-86.12,3.44,-0.62,0.38,-0.59,-0.35
3.0,141.81,41.88,1.12,141.81,41.88,1.12,-0.31,0.34,0.11,0.88,3.0,300.63,-86.62,3.31,300.63,-86.62,3.31,-0.61,0.39,-0.6,-0.35
3.0,141.75,41.88,1.06,141.75,41.88,1.06,-0.31,0.34,0.11,0.88,3.0,300.0,-86.0,176.88,300.0,-86.0,176.88,-0.59,0.4,-0.61,-0.34
3.0,141.75,41.94,1.12,141.75,41.94,1.12,-0.31,0.34,0.11,0.88,3.0,299.81,-84.06,177.13,299.81,-84.06,177.13,-0.58,0.4,-0.62,-0.34
3.0,141.75,41.94,1.12,141.75,41.94,1.12,-0.31,0.34,0.11,0.88,3.0,300.25,-83.94,177.19,300.25,-83.94,177.19,-0.59,0.4,-0.62,-0.34
3.0,141.69,41.94,1.0,141.69,41.94,1.0,-0.31,0.34,0.11,0.88,3.0,300.88,-85.94,176.94,300.88,-85.94,176.94,-0.61,0.39,-0.6,-0.34
3.0,141.69,42.0,0.94,141.69,42.0,0.94,-0.31,0.34,0.11,0.88,3.0,301.56,-86.44,3.44,301.56,-86.44,3.44,-0.62,0.38,-0.59,-0.35
3.0,141.69,42.19,1.06,141.69,42.19,1.06,-0.31,0.34,0.11,0.88,3.0,302.25,-85.37,3.81,302.25,-85.37,3.81,-0.63,0.37,-0.58,-0.35
3.0,141.63,42.44,1.37,141.63,42.44,1.37,-0.31,0.35,0.11,0.88,3.0,302.5,-85.31,3.81,302.5,-85.31,3.81,-0.63,0.37,-0.58,-0.35
3.0,141.63,42.69,1.88,141.63,42.69,1.88,-0.31,0.35,0.11,0.88,3.0,302.56,-86.25,3.5,302.56,-86.25,3.5,-0.62,0.38,-0.6,-0.34
3.0,141.75,42.63,2.0,141.75,42.63,2.0,-0.3,0.35,0.11,0.88,3.0,302.69,-86.25,176.94,302.69,-86.25,176.94,-0.6,0.38,-0.62,-0.33
3.0,141.88,42.5,1.94,141.88,42.5,1.94,-0.3,0.35,0.11,0.88,3.0,303.13,-84.19,177.19,303.13,-84.19,177.19,-0.59,0.38,-0.64,-0.32
3.0,141.88,42.31,1.81,141.88,42.31,1.81,-0.3,0.35,0.11,0.88,3.0,304.0,-82.62,157.63,304.0,-82.62,157.63,-0.58,0.38,-0.64,-0.31
3.0,141.94,42.19,1.63,141.94,42.19,1.63,-0.3,0.34,0.11,0.88,3.0,304.88,-81.81,159.38,304.88,-81.81,159.38,-0.58,0.38,-0.65,-0.3
3.0,141.94,42.13,1.56,141.94,42.13,1.56,-0.3,0.34,0.11,0.88,3.0,305.94,-81.19,160.19,305.94,-81.19,160.19,-0.58,0.38,-0.66,-0.3
3.0,141.94,42.25,1.63,141.94,42.25,1.63,-0.3,0.35,0.11,0.88,3.0,306.69,-81.06,159.94,306.69,-81.06,159.94,-0.59,0.37,-0.66,-0.29
3.0,142.0,42.38,1.69,142.0,42.38,1.69,-0.3,0.35,0.11,0.88,3.0,306.94,-81.5,158.88,306.94,-81.5,158.88,-0.59,0.37,-0.66,-0.29
3.0,142.0,42.44,1.75,142.0,42.44,1.75,-0.3,0.35,0.11,0.88,3.0,306.69,-81.69,159.13,306.69,-81.69,159.13,-0.59,0.37,-0.65,-0.3
3.0,142.0,42.5,1.81,142.0,42.5,1.81,-0.3,0.35,0.11,0.88,3.0,306.13,-81.44,160.75,306.13,-81.44,160.75,-0.58,0.38,-0.66,-0.3
3.0,142.06,42.5,1.88,142.06,42.5,1.88,-0.3,0.35,0.11,0.88,3.0,305.19,-81.12,162.56,305.19,-81.12,162.56,-0.58,0.38,-0.66,-0.3
3.0,142.06,42.5,1.94,142.06,42.5,1.94,-0.3,0.35,0.11,0.88,3.0,304.31,-79.62,166.25,304.31,-79.62,166.25,-0.56,0.39,-0.67,-0.3
3.0,142.13,42.5,1.88,142.13,42.5,1.88,-0.3,0.35,0.11,0.88,3.0,303.38,-76.0,170.31,303.38,-76.0,170.31,-0.54,0.41,-0.68,-0.29
3.0,142.13,42.44,1.81,142.13,42.44,1.81,-0.3,0.35,0.11,0.88,3.0,302.19,-73.5,172.56,302.19,-73.5,172.56,-0.52,0.41,-0.69,-0.29
3.0,142.13,42.38,1.63,142.13,42.38,1.63,-0.3,0.35,0.11,0.88,3.0,301.06,-73.87,173.25,301.06,-73.87,173.25,-0.52,0.42,-0.68,-0.3
3.0,142.13,42.31,1.56,142.13,42.31,1.56,-0.3,0.35,0.11,0.88,3.0,300.69,-74.25,173.44,300.69,-74.25,173.44,-0.53,0.42,-0.68,-0.3
3.0,142.13,42.31,1.63,142.13,42.31,1.63,-0.3,0.35,0.11,0.88,3.0,300.75,-74.37,173.44,300.75,-74.37,173.44,-0.53,0.41,-0.68,-0.3
3.0,142.13,42.31,1.69,142.13,42.31,1.69,-0.3,0.35,0.11,0.88,3.0,300.75,-74.81,173.38,300.75,-74.81,173.38,-0.53,0.41,-0.68,-0.3
3.0,142.13,42.31,1.75,142.13,42.31,1.75,-0.3,0.35,0.11,0.88,3.0,300.5,-75.56,173.56,300.5,-75.56,173.56,-0.53,0.41,-0.67,-0.3
3.0,142.19,42.38,1.81,142.19,42.38,1.81,-0.3,0.35,0.11,0.88,3.0,300.5,-75.62,173.69,300.5,-75.62,173.69,-0.53,0.41,-0.68,-0.3
3.0,142.19,42.38,1.81,142.19,42.38,1.81,-0.3,0.35,0.11,0.88,3.0,300.75,-75.19,173.81,300.75,-75.19,173.81,-0.53,0.41,-0.68,-0.3
3.0,142.19,42.38,1.81,142.19,42.38,1.81,-0.3,0.35,0.1,0.88,3.0,301.06,-74.81,173.88,301.06,-74.81,173.88,-0.53,0.41,-0.68,-0.3
3.0,142.19,42.38,1.81,142.19,42.38,1.81,-0.3,0.35,0.11,0.88,3.0,301.25,-74.0,174.06,301.25,-74.0,174.06,-0.52,0.41,-0.69,-0.29
3.0,142.19,42.44,1.88,142.19,42.44,1.88,-0.3,0.35,0.1,0.88,3.0,301.69,-73.31,174.0,301.69,-73.31,174.0,-0.52,0.41,-0.69,-0.29
3.0,142.19,42.5,1.88,142.19,42.5,1.88,-0.3,0.35,0.1,0.88,3.0,302.19,-72.94,173.63,302.19,-72.94,173.63,-0.52,0.41,-0.69,-0.29
3.0,142.19,42.56,1.88,142.19,42.56,1.88,-0.3,0.35,0.11,0.88,3.0,302.75,-72.75,173.25,302.75,-72.75,173.25,-0.52,0.41,-0.69,-0.28
3.0,142.13,42.56,1.81,142.13,42.56,1.81,-0.3,0.35,0.11,0.88,3.0,303.25,-72.25,172.94,303.25,-72.25,172.94,-0.52,0.41,-0.7,-0.28
3.0,142.19,42.56,1.81,142.19,42.56,1.81,-0.3,0.35,0.11,0.88,3.0,303.63,-72.0,172.69,303.63,-72.0,172.69,-0.52,0.41,-0.7,-0.28
3.0,142.19,42.56,1.81,142.19,42.56,1.81,-0.3,0.35,0.11,0.88,3.0,303.69,-72.25,172.38,303.69,-72.25,172.38,-0.52,0.41,-0.69,-0.28
3.0,142.19,42.56,1.75,142.19,42.56,1.75,-0.3,0.35,0.11,0.88,3.0,304.0,-72.31,171.94,304.0,-72.31,171.94,-0.52,0.41,-0.69,-0.28
3.0,142.13,42.5,1.69,142.13,42.5,1.69,-0.3,0.35,0.11,0.88,3.0,304.88,-71.12,171.44,304.88,-71.12,171.44,-0.52,0.41,-0.7,-0.27
3.0,142.13,42.5,1.63,142.13,42.5,1.63,-0.3,0.35,0.11,0.88,3.0,306.56,-69.31,170.56,306.56,-69.31,170.56,-0.51,0.41,-0.71,-0.26
3.0,142.13,42.44,1.5,142.13,42.44,1.5,-0.3,0.35,0.11,0.88,3.0,308.69,-67.75,169.5,308.69,-67.75,169.5,-0.51,0.41,-0.72,-0.24
3.0,142.06,42.44,1.44,142.06,42.44,1.44,-0.3,0.35,0.11,0.88,3.0,310.06,-66.62,168.81,310.06,-66.62,168.81,-0.5,0.41,-0.72,-0.23
3.0,142.06,42.44,1.44,142.06,42.44,1.44,-0.3,0.35,0.11,0.88,3.0,310.5,-66.12,168.75,310.5,-66.12,168.75,-0.5,0.41,-0.73,-0.23
3.0,142.0,42.38,1.44,142.0,42.38,1.44,-0.3,0.35,0.11,0.88,3.0,310.81,-65.69,168.63,310.81,-65.69,168.63,-0.5,0.41,-0.73,-0.23
3.0,142.0,42.38,1.63,142.0,42.38,1.63,-0.3,0.35,0.11,0.88,3.0,310.94,-65.75,168.56,310.94,-65.75,168.56,-0.5,0.41,-0.73,-0.23
3.0,141.94,42.38,1.69,141.94,42.38,1.69,-0.3,0.35,0.11,0.88,3.0,311.06,-65.56,168.56,311.06,-65.56,168.56,-0.5,0.41,-0.73,-0.23
3.0,141.94,42.31,1.81,141.94,42.31,1.81,-0.3,0.35,0.11,0.88,3.0,311.13,-65.37,168.56,311.13,-65.37,168.56,-0.5,0.41,-0.73,-0.23
3.0,141.88,42.31,2.0,141.88,42.31,2.0,-0.3,0.35,0.1,0.88,3.0,310.75,-65.75,168.69,310.75,-65.75,168.69,-0.5,0.41,-0.73,-0.23
3.0,141.88,42.31,2.13,141.88,42.31,2.13,-0.3,0.35,0.1,0.88,3.0,309.69,-66.37,169.19,309.69,-66.37,169.19,-0.5,0.42,-0.72,-0.24
3.0,141.88,42.31,2.13,141.88,42.31,2.13,-0.3,0.35,0.1,0.88,3.0,308.56,-66.56,169.88,308.56,-66.56,169.88,-0.5,0.42,-0.72,-0.24
3.0,141.88,42.25,2.0,141.88,42.25,2.0,-0.3,0.34,0.1,0.88,3.0,307.94,-66.87,169.88,307.94,-66.87,169.88,-0.5,0.42,-0.72,-0.24
3.0,141.88,42.13,1.88,141.88,42.13,1.88,-0.3,0.34,0.1,0.88,3.0,308.81,-67.81,167.94,308.81,-67.81,167.94,-0.51,0.42,-0.71,-0.24
3.0,141.88,42.0,1.88,141.88,42.0,1.88,-0.3,0.34,0.1,0.88,3.0,310.63,-68.37,165.0,310.63,-68.37,165.0,-0.52,0.42,-0.71,-0.24
3.0,141.94,42.0,1.88,141.94,42.0,1.88,-0.3,0.34,0.1,0.88,3.0,311.5,-66.75,165.0,311.5,-66.75,165.0,-0.51,0.42,-0.72,-0.23
3.0,142.0,42.06,1.94,142.0,42.06,1.94,-0.3,0.34,0.1,0.88,3.0,312.0,-64.81,165.44,312.0,-64.81,165.44,-0.5,0.43,-0.72,-0.22
3.0,142.0,42.06,1.94,142.0,42.06,1.94,-0.3,0.34,0.1,0.88,3.0,312.38,-63.75,165.31,312.38,-63.75,165.31,-0.49,0.43,-0.73,-0.22
3.0,142.0,42.06,2.0,142.0,42.06,2.0,-0.3,0.34,0.1,0.88,3.0,311.75,-62.63,166.31,311.75,-62.63,166.31,-0.48,0.44,-0.73,-0.21
3.0,142.0,42.06,2.06,142.0,42.06,2.06,-0.3,0.34,0.1,0.88,3.0,311.06,-61.56,167.31,311.06,-61.56,167.31,-0.47,0.44,-0.73,-0.21
3.0,141.94,42.0,2.0,141.94,42.0,2.0,-0.3,0.34,0.1,0.88,3.0,311.0,-60.88,167.56,311.0,-60.88,167.56,-0.47,0.45,-0.73,-0.21
3.0,141.94,41.94,1.94,141.94,41.94,1.94,-0.3,0.34,0.1,0.88,3.0,311.13,-60.81,167.44,311.13,-60.81,167.44,-0.47,0.45,-0.73,-0.21
3.0,141.94,41.94,1.94,141.94,41.94,1.94,-0.3,0.34,0.1,0.88,3.0,311.06,-60.81,167.56,311.06,-60.81,167.56,-0.47,0.45,-0.73,-0.21
3.0,141.94,41.88,1.88,141.94,41.88,1.88,-0.3,0.34,0.1,0.88,3.0,311.0,-60.31,167.94,311.0,-60.31,167.94,-0.46,0.45,-0.74,-0.21
3.0,141.88,41.88,1.81,141.88,41.88,1.81,-0.3,0.34,0.1,0.88,3.0,311.06,-59.94,168.13,311.06,-59.94,168.13,-0.46,0.45,-0.74,-0.21
3.0,141.88,41.81,1.69,141.88,41.81,1.69,-0.31,0.34,0.11,0.88,3.0,311.25,-59.81,168.13,311.25,-59.81,168.13,-0.46,0.45,-0.74,-0.21
3.0,141.81,41.81,1.63,141.81,41.81,1.63,-0.31,0.34,0.11,0.88,3.0,311.63,-59.25,168.25,311.63,-59.25,168.25,-0.45,0.45,-0.74,-0.2
3.0,141.81,41.81,1.5,141.81,41.81,1.5,-0.31,0.34,0.11,0.88,3.0,312.06,-58.25,168.5,312.06,-58.25,168.5,-0.45,0.45,-0.75,-0.2
3.0,141.75,41.81,1.44,141.75,41.81,1.44,-0.31,0.34,0.11,0.88,3.0,311.94,-57.5,168.88,311.94,-57.5,168.88,-0.44,0.45,-0.75,-0.2
3.0,141.75,41.81,1.31,141.75,41.81,1.31,-0.31,0.34,0.11,0.88,3.0,311.44,-57.19,169.38,311.44,-57.19,169.38,-0.44,0.45,-0.75,-0.2
3.0,141.69,41.75,1.19,141.69,41.75,1.19,-0.31,0.34,0.11,0.88,3.0,311.0,-57.06,169.81,311.0,-57.06,169.81,-0.44,0.45,-0.75,-0.2
3.0,141.63,41.69,1.19,141.63,41.69,1.19,-0.31,0.34,0.11,0.88,3.0,310.19,-57.0,170.44,310.19,-57.0,170.44,-0.44,0.45,-0.75,-0.2
3.0,141.44,41.5,1.75,141.44,41.5,1.75,-0.31,0.34,0.11,0.88,3.0,309.06,-56.88,171.38,309.06,-56.88,171.38,-0.43,0.45,-0.75,-0.21
3.0,141.0,41.38,2.88,141.0,41.38,2.88,-0.31,0.34,0.1,0.88,3.0,307.56,-56.94,172.63,307.56,-56.94,172.63,-0.43,0.45,-0.75,-0.21
3.0,140.63,41.19,3.56,140.63,41.19,3.56,-0.31,0.34,0.1,0.88,3.0,306.0,-57.44,174.0,306.0,-57.44,174.0,-0.43,0.45,-0.75,-0.22
3.0,140.5,41.13,3.81,140.5,41.13,3.81,-0.32,0.34,0.09,0.88,3.0,304.75,-57.69,175.63,304.75,-57.69,175.63,-0.43,0.44,-0.76,-0.22
3.0,140.38,41.0,3.81,140.38,41.0,3.81,-0.32,0.34,0.09,0.88,3.0,304.5,-57.69,175.81,304.5,-57.69,175.81,-0.43,0.44,-0.76,-0.22
3.0,140.38,40.81,3.56,140.38,40.81,3.56,-0.32,0.34,0.09,0.88,3.0,304.81,-56.94,175.75,304.81,-56.94,175.75,-0.42,0.44,-0.76,-0.22
3.0,140.38,40.69,3.5,140.38,40.69,3.5,-0.32,0.34,0.09,0.88,3.0,305.25,-55.69,175.69,305.25,-55.69,175.69,-0.41,0.45,-0.76,-0.21
3.0,140.31,40.56,3.44,140.31,40.56,3.44,-0.32,0.33,0.1,0.88,3.0,305.19,-54.31,176.13,305.19,-54.31,176.13,-0.4,0.45,-0.77,-0.21
3.0,140.25,40.38,3.19,140.25,40.38,3.19,-0.32,0.33,0.1,0.88,3.0,304.25,-52.63,177.06,304.25,-52.63,177.06,-0.39,0.45,-0.78,-0.21
3.0,140.19,40.25,2.69,140.19,40.25,2.69,-0.32,0.33,0.1,0.88,3.0,302.69,-51.25,178.13,302.69,-51.25,178.13,-0.38,0.45,-0.78,-0.21
3.0,140.13,40.25,2.19,140.13,40.25,2.19,-0.32,0.33,0.1,0.88,3.0,301.44,-50.44,178.75,301.44,-50.44,178.75,-0.37,0.46,-0.78,-0.21
3.0,140.13,40.31,2.0,140.13,40.31,2.0,-0.32,0.33,0.1,0.88,3.0,300.63,-49.88,179.13,300.63,-49.88,179.13,-0.36,0.46,-0.78,-0.21
3.0,140.06,40.44,2.06,140.06,40.44,2.06,-0.32,0.33,0.1,0.88,3.0,300.0,-49.25,179.38,300.0,-49.25,179.38,-0.36,0.46,-0.78,-0.21
3.0,140.0,40.5,2.13,140.0,40.5,2.13,-0.32,0.33,0.1,0.88,3.0,299.88,-49.13,179.38,299.88,-49.13,179.38,-0.36,0.46,-0.78,-0.21
3.0,140.0,40.5,2.19,140.0,40.5,2.19,-0.32,0.33,0.1,0.88,3.0,299.63,-49.88,179.5,299.63,-49.88,179.5,-0.37,0.46,-0.78,-0.21
3.0,139.94,40.5,2.13,139.94,40.5,2.13,-0.32,0.33,0.1,0.88,3.0,298.88,-50.75,179.88,298.88,-50.75,179.88,-0.37,0.46,-0.78,-0.22
3.0,139.94,40.5,2.13,139.94,40.5,2.13,-0.32,0.33,0.1,0.88,3.0,298.31,-51.0,-179.75,298.31,-51.0,-179.75,-0.37,0.46,-0.78,-0.22
3.0,139.94,40.5,2.13,139.94,40.5,2.13,-0.32,0.33,0.1,0.88,3.0,298.19,-51.13,-179.75,298.19,-51.13,-179.75,-0.37,0.46,-0.78,-0.22
3.0,139.94,40.5,2.06,139.94,40.5,2.06,-0.32,0.33,0.1,0.88,3.0,298.06,-51.25,-179.75,298.06,-51.25,-179.75,-0.37,0.46,-0.77,-0.22
3.0,139.94,40.56,2.0,139.94,40.56,2.0,-0.32,0.33,0.11,0.88,3.0,297.88,-50.88,-179.63,297.88,-50.88,-179.63,-0.37,0.46,-0.78,-0.22
3.0,139.94,40.56,2.0,139.94,40.56,2.0,-0.32,0.33,0.11,0.88,3.0,298.44,-50.19,179.88,298.44,-50.19,179.88,-0.36,0.46,-0.78,-0.22
3.0,139.94,40.56,1.88,139.94,40.56,1.88,-0.32,0.33,0.11,0.88,3.0,299.75,-49.81,179.19,299.75,-49.81,179.19,-0.36,0.46,-0.78,-0.21
3.0,140.0,40.56,1.69,140.0,40.56,1.69,-0.32,0.33,0.11,0.88,3.0,300.75,-48.81,178.69,300.75,-48.81,178.69,-0.36,0.47,-0.78,-0.2
3.0,140.0,40.56,1.63,140.0,40.56,1.63,-0.32,0.33,0.11,0.88,3.0,301.75,-47.63,178.5,301.75,-47.63,178.5,-0.35,0.46,-0.79,-0.19
3.0,140.0,40.5,1.5,140.0,40.5,1.5,-0.32,0.33,0.11,0.88,3.0,303.06,-47.56,177.88,303.06,-47.56,177.88,-0.36,0.46,-0.79,-0.19
3.0,140.06,40.5,1.31,140.06,40.5,1.31,-0.32,0.33,0.11,0.88,3.0,303.94,-48.19,177.5,303.94,-48.19,177.5,-0.36,0.46,-0.79,-0.19
3.0,140.06,40.56,1.25,140.06,40.56,1.25,-0.32,0.33,0.11,0.88,3.0,304.31,-48.13,177.38,304.31,-48.13,177.38,-0.36,0.46,-0.79,-0.19
3.0,140.06,40.63,1.19,140.06,40.63,1.19,-0.32,0.33,0.11,0.88,3.0,304.5,-47.63,177.38,304.5,-47.63,177.38,-0.36,0.46,-0.79,-0.19
3.0,140.0,40.69,1.12,140.0,40.69,1.12,-0.32,0.33,0.11,0.88,3.0,304.63,-47.13,177.44,304.63,-47.13,177.44,-0.35,0.46,-0.79,-0.19
3.0,140.0,40.69,1.0,140.0,40.69,1.0,-0.32,0.33,0.11,0.88,3.0,304.56,-47.06,177.5,304.56,-47.06,177.5,-0.35,0.46,-0.79,-0.19
3.0,140.0,40.63,0.88,140.0,40.63,0.88,-0.32,0.33,0.11,0.88,3.0,304.5,-47.25,177.56,304.5,-47.25,177.56,-0.36,0.46,-0.79,-0.19
3.0,140.0,40.63,0.75,140.0,40.63,0.75,-0.32,0.33,0.11,0.88,3.0,304.31,-47.75,177.63,304.31,-47.75,177.63,-0.36,0.46,-0.79,-0.19
3.0,140.0,40.56,0.63,140.0,40.56,0.63,-0.32,0.33,0.11,0.88,3.0,304.06,-48.25,177.69,304.06,-48.25,177.69,-0.36,0.46,-0.79,-0.19
3.0,140.0,40.56,0.63,140.0,40.56,0.63,-0.32,0.33,0.11,0.88,3.0,303.25,-48.44,178.13,303.25,-48.44,178.13,-0.36,0.46,-0.79,-0.2
3.0,140.0,40.63,0.56,140.0,40.63,0.56,-0.32,0.33,0.11,0.88,3.0,302.56,-48.19,178.38,302.56,-48.19,178.38,-0.36,0.46,-0.79,-0.2
3.0,139.94,40.63,0.5,139.94,40.63,0.5,-0.32,0.33,0.12,0.88,3.0,302.69,-48.0,178.25,302.69,-48.0,178.25,-0.36,0.46,-0.79,-0.19
3.0,139.94,40.63,0.5,139.94,40.63,0.5,-0.32,0.33,0.12,0.88,3.0,303.69,-47.94,177.69,303.69,-47.94,177.69,-0.36,0.46,-0.79,-0.19
3.0,139.94,40.63,0.5,139.94,40.63,0.5,-0.32,0.33,0.12,0.88,3.0,305.19,-47.88,176.94,305.19,-47.88,176.94,-0.36,0.46,-0.79,-0.19
3.0,140.0,40.63,0.5,140.0,40.63,0.5,-0.32,0.33,0.11,0.88,3.0,305.63,-47.25,176.69,305.63,-47.25,176.69,-0.36,0.46,-0.79,-0.18
3.0,140.0,40.63,0.63,140.0,40.63,0.63,-0.32,0.33,0.11,0.88,3.0,305.25,-46.31,176.94,305.25,-46.31,176.94,-0.35,0.46,-0.8,-0.18
3.0,140.0,40.69,0.63,140.0,40.69,0.63,-0.32,0.33,0.11,0.88,3.0,303.81,-45.19,177.75,303.81,-45.19,177.75,-0.34,0.47,-0.8,-0.18
3.0,140.0,40.69,0.63,140.0,40.69,0.63,-0.32,0.33,0.11,0.88,3.0,299.19,-44.19,178.31,299.19,-44.19,178.31,-0.33,0.47,-0.8,-0.18
3.0,140.0,40.69,0.75,140.0,40.69,0.75,-0.32,0.33,0.11,0.88,3.0,299.0,-43.81,178.63,299.0,-43.81,178.63,-0.33,0.47,-0.8,-0.18
3.0,139.94,40.63,0.81,139.94,40.63,0.81,-0.32,0.33,0.11,0.88,3.0,298.94,-43.94,178.75,298.94,-43.94,178.75,-0.33,0.47,-0.8,-0.18
3.0,139.88,40.5,0.88,139.88,40.5,0.88,-0.32,0.33,0.11,0.88,3.0,298.88,-44.63,179.0,298.88,-44.63,179.0,-0.33,0.47,-0.8,-0.19
3.0,139.88,40.44,0.94,139.88,40.44,0.94,-0.32,0.33,0.11,0.88,3.0,299.75,-45.31,179.44,299.75,-45.31,179.44,-0.33,0.47,-0.79,-0.19
3.0,139.81,40.31,0.94,139.81,40.31,0.94,-0.32,0.33,0.11,0.88,3.0,298.81,-45.69,179.88,298.81,-45.69,179.88,-0.33,0.47,-0.79,-0.2
3.0,139.75,40.25,0.75,139.75,40.25,0.75,-0.32,0.33,0.11,0.88,3.0,298.19,-45.75,-179.75,298.19,-45.75,-179.75,-0.33,0.47,-0.79,-0.2
3.0,139.75,40.25,0.69,139.75,40.25,0.69,-0.32,0.33,0.11,0.88,3.0,297.94,-45.44,-179.69,297.94,-45.44,-179.69,-0.33,0.47,-0.79,-0.2
3.0,139.75,40.25,0.69,139.75,40.25,0.69,-0.32,0.33,0.11,0.88,3.0,297.88,-45.0,-179.63,297.88,-45.0,-179.63,-0.33,0.47,-0.79,-0.2
3.0,139.75,40.19,0.5,139.75,40.19,0.5,-0.32,0.32,0.11,0.88,3.0,297.88,-45.0,-179.63,297.88,-45.0,-179.63,-0.33,0.47,-0.79,-0.2
3.0,139.75,40.0,0.25,139.75,40.0,0.25,-0.32,0.32,0.12,0.88,3.0,297.69,-45.13,-179.56,297.69,-45.13,-179.56,-0.33,0.47,-0.79,-0.2
3.0,139.81,39.75,0.0,139.81,39.75,0.0,-0.32,0.32,0.12,0.88,3.0,297.31,-45.13,-179.38,297.31,-45.13,-179.38,-0.33,0.47,-0.79,-0.2
3.0,139.81,39.44,-0.31,139.81,39.44,-0.31,-0.32,0.32,0.12,0.88,3.0,297.0,-45.19,-179.25,297.0,-45.19,-179.25,-0.33,0.47,-0.79,-0.2
3.0,139.81,39.25,-0.63,139.81,39.25,-0.63,-0.32,0.31,0.12,0.88,3.0,296.63,-45.5,-179.06,296.63,-45.5,-179.06,-0.33,0.47,-0.79,-0.2
3.0,139.81,39.13,-0.81,139.81,39.13,-0.81,-0.32,0.31,0.12,0.88,3.0,296.13,-45.69,-178.81,296.13,-45.69,-178.81,-0.33,0.47,-0.79,-0.21
3.0,139.75,39.06,-0.94,139.75,39.06,-0.94,-0.32,0.31,0.12,0.89,3.0,295.38,-45.75,-178.5,295.38,-45.75,-178.5,-0.33,0.47,-0.79,-0.21
3.0,139.69,38.94,-1.19,139.69,38.94,-1.19,-0.32,0.31,0.12,0.89,3.0,294.88,-45.88,-178.25,294.88,-45.88,-178.25,-0.33,0.47,-0.79,-0.21
3.0,139.69,38.69,-1.5,139.69,38.69,-1.5,-0.32,0.31,0.13,0.89,3.0,294.38,-46.0,-178.0,294.38,-46.0,-178.0,-0.33,0.47,-0.79,-0.21
3.0,139.69,38.5,-1.88,139.69,38.5,-1.88,-0.33,0.3,0.13,0.89,3.0,294.13,-46.19,-177.88,294.13,-46.19,-177.88,-0.33,0.47,-0.79,-0.21
3.0,139.69,38.38,-2.06,139.69,38.38,-2.06,-0.33,0.3,0.13,0.89,3.0,294.0,-46.38,-177.81,294.0,-46.38,-177.81,-0.33,0.47,-0.79,-0.21
3.0,139.69,38.31,-2.0,139.69,38.31,-2.0,-0.33,0.3,0.13,0.89,3.0,294.13,-46.31,-177.88,294.13,-46.31,-177.88,-0.33,0.47,-0.79,-0.21
3.0,139.63,38.44,-1.94,139.63,38.44,-1.94,-0.33,0.3,0.13,0.89,3.0,294.44,-46.38,-178.06,294.44,-46.38,-178.06,-0.33,0.47,-0.79,-0.21
3.0,139.63,38.63,-1.88,139.63,38.63,-1.88,-0.33,0.31,0.13,0.89,3.0,294.56,-46.44,-178.13,294.56,-46.44,-178.13,-0.33,0.47,-0.79,-0.21
3.0,139.56,38.88,-1.81,139.56,38.88,-1.81,-0.33,0.31,0.13,0.88,3.0,294.63,-46.56,-178.13,294.63,-46.56,-178.13,-0.33,0.47,-0.79,-0.21
3.0,139.56,39.06,-1.69,139.56,39.06,-1.69,-0.33,0.31,0.13,0.88,3.0,294.63,-46.69,-178.13,294.63,-46.69,-178.13,-0.33,0.47,-0.79,-0.21
3.0,139.56,39.25,-1.44,139.56,39.25,-1.44,-0.33,0.31,0.13,0.88,3.0,294.63,-46.81,-178.13,294.63,-46.81,-178.13,-0.34,0.47,-0.79,-0.22
3.0,139.56,39.44,-1.25,139.56,39.44,-1.25,-0.32,0.31,0.13,0.88,3.0,294.44,-46.88,-178.0,294.44,-46.88,-178.0,-0.34,0.47,-0.79,-0.22
3.0,139.63,39.56,-1.12,139.63,39.56,-1.12,-0.32,0.32,0.12,0.88,3.0,294.44,-46.94,-178.0,294.44,-46.94,-178.0,-0.34,0.47,-0.79,-0.22
3.0,139.63,39.63,-0.94,139.63,39.63,-0.94,-0.32,0.32,0.12,0.88,3.0,294.5,-47.06,-178.0,294.5,-47.06,-178.0,-0.34,0.47,-0.79,-0.22
3.0,139.69,39.5,-0.88,139.69,39.5,-0.88,-0.32,0.31,0.12,0.88,3.0,294.56,-47.19,-178.0,294.56,-47.19,-178.0,-0.34,0.47,-0.79,-0.22
3.0,139.75,39.25,-0.81,139.75,39.25,-0.81,-0.32,0.31,0.12,0.88,3.0,294.44,-47.25,-177.94,294.44,-47.25,-177.94,-0.34,0.47,-0.79,-0.22
3.0,139.81,39.0,-0.81,139.81,39.0,-0.81,-0.32,0.31,0.12,0.89,3.0,294.19,-47.31,-177.81,294.19,-47.31,-177.81,-0.34,0.47,-0.79,-0.22
3.0,139.88,38.88,-0.81,139.88,38.88,-0.81,-0.32,0.31,0.12,0.89,3.0,293.94,-47.31,-177.75,293.94,-47.31,-177.75,-0.34,0.47,-0.79,-0.22
3.0,139.88,38.75,-0.94,139.88,38.75,-0.94,-0.32,0.31,0.12,0.89,3.0,293.63,-47.31,-177.56,293.63,-47.31,-177.56,-0.34,0.47,-0.79,-0.22
3.0,139.88,38.69,-1.12,139.88,38.69,-1.12,-0.32,0.31,0.12,0.89,3.0,293.38,-47.31,-177.5,293.38,-47.31,-177.5,-0.34,0.47,-0.78,-0.22
3.0,139.88,38.69,-1.25,139.88,38.69,-1.25,-0.32,0.31,0.12,0.89,3.0,293.38,-47.38,-177.5,293.38,-47.38,-177.5,-0.34,0.47,-0.78,-0.22
3.0,139.88,38.69,-1.44,139.88,38.69,-1.44,-0.32,0.31,0.12,0.89,3.0,293.31,-47.56,-177.5,293.31,-47.56,-177.5,-0.34,0.47,-0.78,-0.22
3.0,139.88,38.63,-1.5,139.88,38.63,-1.5,-0.32,0.31,0.12,0.89,3.0,293.38,-47.75,-177.5,293.38,-47.75,-177.5,-0.34,0.47,-0.78,-0.22
3.0,139.88,38.75,-1.5,139.88,38.75,-1.5,-0.32,0.31,0.12,0.89,3.0,293.38,-47.88,-177.5,293.38,-47.88,-177.5,-0.34,0.47,-0.78,-0.22
3.0,139.88,38.81,-1.44,139.88,38.81,-1.44,-0.32,0.31,0.12,0.89,3.0,293.63,-47.94,-177.63,293.63,-47.94,-177.63,-0.34,0.47,-0.78,-0.22
3.0,139.88,38.81,-1.44,139.88,38.81,-1.44,-0.32,0.31,0.12,0.89,3.0,293.94,-47.94,-177.81,293.94,-47.94,-177.81,-0.34,0.47,-0.78,-0.22
3.0,139.88,38.88,-1.44,139.88,38.88,-1.44,-0.32,0.31,0.12,0.89,3.0,294.25,-47.94,-178.0,294.25,-47.94,-178.0,-0.34,0.47,-0.78,-0.22
3.0,139.88,38.88,-1.5,139.88,38.88,-1.5,-0.32,0.31,0.12,0.89,3.0,294.5,-48.0,-178.06,294.5,-48.0,-178.06,-0.34,0.47,-0.78,-0.22
3.0,139.81,38.88,-1.56,139.81,38.88,-1.56,-0.32,0.31,0.13,0.89,3.0,294.5,-48.13,-178.06,294.5,-48.13,-178.06,-0.34,0.47,-0.78,-0.22
3.0,139.81,38.88,-1.69,139.81,38.88,-1.69,-0.32,0.31,0.13,0.89,3.0,294.25,-48.06,-177.94,294.25,-48.06,-177.94,-0.34,0.47,-0.78,-0.22
3.0,139.81,38.81,-1.81,139.81,38.81,-1.81,-0.32,0.31,0.13,0.89,3.0,293.94,-47.94,-177.81,293.94,-47.94,-177.81,-0.34,0.47,-0.78,-0.22
3.0,139.81,38.81,-1.94,139.81,38.81,-1.94,-0.32,0.31,0.13,0.89,3.0,293.44,-47.81,-177.63,293.44,-47.81,-177.63,-0.34,0.47,-0.78,-0.22
3.0,139.81,38.88,-1.94,139.81,38.88,-1.94,-0.32,0.31,0.13,0.89,3.0,293.13,-47.94,-177.44,293.13,-47.94,-177.44,-0.34,0.47,-0.78,-0.22
3.0,139.81,38.88,-1.88,139.81,38.88,-1.88,-0.32,0.31,0.13,0.89,3.0,293.06,-48.25,-177.38,293.06,-48.25,-177.38,-0.34,0.47,-0.78,-0.23
3.0,139.81,38.94,-1.88,139.81,38.94,-1.88,-0.32,0.31,0.13,0.89,3.0,293.0,-48.56,-177.38,293.0,-48.56,-177.38,-0.34,0.47,-0.78,-0.23
3.0,139.88,38.94,-1.94,139.88,38.94,-1.94,-0.32,0.31,0.13,0.89,3.0,292.94,-48.69,-177.31,292.94,-48.69,-177.31,-0.34,0.47,-0.78,-0.23
3.0,139.88,38.94,-1.88,139.88,38.94,-1.88,-0.32,0.31,0.13,0.89,3.0,292.88,-48.63,-177.31,292.88,-48.63,-177.31,-0.34,0.47,-0.78,-0.23
3.0,139.88,38.94,-1.88,139.88,38.94,-1.88,-0.32,0.31,0.13,0.89,3.0,292.88,-48.44,-177.31,292.88,-48.44,-177.31,-0.34,0.47,-0.78,-0.23
3.0,139.88,38.94,-1.88,139.88,38.94,-1.88,-0.32,0.31,0.13,0.89,3.0,293.0,-48.31,-177.38,293.0,-48.31,-177.38,-0.34,0.47,-0.78,-0.23
