Calibration_1,AccX_1,AccY_1,AccZ_1,Roll_1,Pitch_1,Yaw_1,QuatW_1,QuatX_1,QuatY_1,QuatZ_1,Calibration_2,AccX_2,AccY_2,AccZ_2,Roll_2,Pitch_2,Yaw_2,QuatW_2,QuatX_2,QuatY_2,QuatZ_2
0.0,36.5,-22.56,-1.44,36.5,-22.56,-1.44,0.93,0.07,0.18,-0.31,0.0,0.0,0.0,0.0,0.0,0.0,0.0,0.0,0.0,0.0,0.0
0.0,37.63,-22.5,-2.13,37.63,-22.5,-2.13,0.93,0.08,0.18,-0.32,0.0,359.69,1.81,-0.94,359.69,1.81,-0.94,1.0,0.01,-0.02,0.0
0.0,38.06,-22.44,-1.56,38.06,-22.44,-1.56,0.93,0.08,0.18,-0.32,0.0,359.63,2.38,-1.06,359.63,2.38,-1.06,1.0,0.01,-0.02,0.01
0.0,38.19,-22.62,-0.81,38.19,-22.62,-0.81,0.93,0.07,0.19,-0.32,0.0,357.88,2.19,-2.06,357.88,2.19,-2.06,1.0,0.02,-0.02,0.02
0.0,38.94,-23.12,0.44,38.94,-23.12,0.44,0.92,0.06,0.19,-0.33,0.0,357.13,2.69,-2.38,357.13,2.69,-2.38,1.0,0.02,-0.02,0.02
0.0,38.63,-23.19,0.44,38.63,-23.19,0.44,0.92,0.06,0.19,-0.32,0.0,357.63,4.25,-1.94,357.63,4.25,-1.94,1.0,0.02,-0.04,0.02
0.0,39.06,-23.19,0.06,39.06,-23.19,0.06,0.92,0.07,0.19,-0.33,0.0,358.0,5.5,-1.81,358.0,5.5,-1.81,1.0,0.02,-0.05,0.02
0.0,39.06,-22.87,0.12,39.06,-22.87,0.12,0.92,0.06,0.19,-0.33,0.0,358.0,5.75,-2.06,358.0,5.75,-2.06,1.0,0.02,-0.05,0.02
0.0,38.75,-22.87,0.44,38.75,-22.87,0.44,0.92,0.06,0.19,-0.33,0.0,357.63,5.0,-2.5,357.63,5.0,-2.5,1.0,0.02,-0.04,0.02
0.0,38.81,-22.87,0.19,38.81,-22.87,0.19,0.92,0.06,0.19,-0.33,0.0,357.25,4.06,-2.75,357.25,4.06,-2.75,1.0,0.03,-0.03,0.02
0.0,39.19,-22.87,0.0,39.19,-22.87,0.0,0.92,0.07,0.19,-0.33,0.0,356.81,3.63,-2.94,356.81,3.63,-2.94,1.0,0.03,-0.03,0.03
0.0,39.31,-22.62,0.19,39.31,-22.62,0.19,0.92,0.06,0.19,-0.33,0.0,356.88,4.13,-2.5,356.88,4.13,-2.5,1.0,0.02,-0.04,0.03
0.0,39.31,-22.5,0.56,39.31,-22.5,0.56,0.92,0.06,0.19,-0.33,0.0,357.31,5.13,-1.88,357.31,5.13,-1.88,1.0,0.02,-0.04,0.02
0.0,38.94,-22.37,0.63,38.94,-22.37,0.63,0.92,0.06,0.18,-0.33,0.0,357.56,6.0,-1.88,357.56,6.0,-1.88,1.0,0.02,-0.05,0.02
0.0,39.25,-22.44,0.31,39.25,-22.44,0.31,0.92,0.06,0.18,-0.33,0.0,357.56,6.19,-2.06,357.56,6.19,-2.06,1.0,0.02,-0.05,0.02
0.0,39.38,-22.37,0.25,39.38,-22.37,0.25,0.92,0.06,0.18,-0.33,0.0,357.25,5.81,-2.31,357.25,5.81,-2.31,1.0,0.02,-0.05,0.03
0.0,39.19,-22.44,0.5,39.19,-22.44,0.5,0.92,0.06,0.18,-0.33,0.0,356.81,5.44,-2.31,356.81,5.44,-2.31,1.0,0.02,-0.05,0.03
0.0,39.0,-22.25,0.44,39.0,-22.25,0.44,0.92,0.06,0.18,-0.33,0.0,356.94,5.81,-2.0,356.94,5.81,-2.0,1.0,0.02,-0.05,0.03
0.0,39.06,-22.12,0.31,39.06,-22.12,0.31,0.92,0.06,0.18,-0.33,0.0,357.06,6.69,-1.88,357.06,6.69,-1.88,1.0,0.02,-0.06,0.03
0.0,38.94,-22.25,0.31,38.94,-22.25,0.31,0.93,0.06,0.18,-0.33,0.0,356.75,7.06,-2.13,356.75,7.06,-2.13,1.0,0.02,-0.06,0.03
0.0,38.75,-22.25,0.37,38.75,-22.25,0.37,0.93,0.06,0.18,-0.32,0.0,356.06,7.0,-2.5,356.06,7.0,-2.5,1.0,0.02,-0.06,0.03
0.0,38.38,-22.0,0.25,38.38,-22.0,0.25,0.93,0.06,0.18,-0.32,0.0,355.75,7.13,-2.81,355.75,7.13,-2.81,1.0,0.03,-0.06,0.04
0.0,38.19,-21.75,-0.31,38.19,-21.75,-0.31,0.93,0.06,0.18,-0.32,0.0,355.0,7.63,-3.13,355.0,7.63,-3.13,1.0,0.03,-0.07,0.04
0.0,38.19,-22.0,0.56,38.19,-22.0,0.56,0.93,0.05,0.19,-0.31,0.0,354.31,8.5,-3.44,354.31,8.5,-3.44,1.0,0.04,-0.07,0.05
0.0,35.63,-22.0,2.06,35.63,-22.0,2.06,0.93,0.04,0.18,-0.3,0.0,352.19,8.06,-5.06,352.19,8.06,-5.06,0.99,0.05,-0.06,0.08
0.0,35.94,-19.87,2.88,35.94,-19.87,2.88,0.94,0.03,0.17,-0.31,0.0,346.88,8.0,-6.81,346.88,8.0,-6.81,0.99,0.07,-0.07,0.12
0.0,37.69,-18.81,5.0,37.69,-18.81,5.0,0.93,0.01,0.17,-0.32,0.0,345.69,11.56,-7.19,345.69,11.56,-7.19,0.98,0.08,-0.11,0.13
0.0,38.5,-19.56,11.0,38.5,-19.56,11.0,0.93,-0.03,0.19,-0.32,0.0,344.88,17.06,-6.44,344.88,17.06,-6.44,0.98,0.07,-0.14,0.13
0.0,40.0,-19.75,18.56,40.0,-19.75,18.56,0.91,-0.09,0.22,-0.33,0.0,343.81,21.06,-3.56,343.81,21.06,-3.56,0.97,0.06,-0.18,0.14
0.0,41.06,-19.87,23.06,41.06,-19.87,23.06,0.9,-0.13,0.24,-0.34,0.0,342.63,23.06,1.5,342.63,23.06,1.5,0.97,0.02,-0.2,0.15
0.0,42.69,-20.5,29.44,42.69,-20.5,29.44,0.88,-0.17,0.27,-0.35,0.0,342.94,25.37,5.13,342.94,25.37,5.13,0.96,-0.02,-0.24,0.14
0.0,43.0,-20.5,32.5,43.0,-20.5,32.5,0.88,-0.18,0.27,-0.35,0.0,344.25,31.44,10.75,344.25,31.44,10.75,0.94,-0.06,-0.3,0.13
0.0,43.38,-19.31,33.13,43.38,-19.31,33.13,0.88,-0.19,0.26,-0.35,0.0,345.25,38.81,16.62,345.25,38.81,16.62,0.92,-0.08,-0.37,0.11
0.0,43.75,-18.31,35.25,43.75,-18.31,35.25,0.87,-0.22,0.26,-0.35,0.0,348.31,44.88,21.06,348.31,44.88,21.06,0.9,-0.11,-0.41,0.08
0.0,44.44,-17.31,37.88,44.44,-17.31,37.88,0.86,-0.24,0.27,-0.36,0.0,351.0,45.69,23.19,351.0,45.69,23.19,0.91,-0.13,-0.4,0.07
0.0,43.88,-16.44,39.69,43.88,-16.44,39.69,0.87,-0.25,0.26,-0.34,0.0,350.06,41.0,23.12,350.06,41.0,23.12,0.92,-0.13,-0.36,0.09
0.0,41.63,-15.5,38.88,41.63,-15.5,38.88,0.88,-0.25,0.24,-0.33,0.0,348.19,37.19,20.94,348.19,37.19,20.94,0.93,-0.11,-0.33,0.1
0.0,40.31,-14.13,36.88,40.31,-14.13,36.88,0.89,-0.24,0.22,-0.33,0.0,348.0,36.81,19.44,348.0,36.81,19.44,0.93,-0.11,-0.33,0.09
0.0,40.44,-12.81,36.13,40.44,-12.81,36.13,0.89,-0.24,0.22,-0.33,0.0,349.44,37.31,20.12,349.44,37.31,20.12,0.93,-0.12,-0.34,0.08
0.0,39.13,-11.5,35.13,39.13,-11.5,35.13,0.9,-0.24,0.19,-0.31,0.0,350.69,36.5,21.69,350.69,36.5,21.69,0.93,-0.14,-0.33,0.07
0.0,35.94,-10.94,32.94,35.94,-10.94,32.94,0.91,-0.24,0.18,-0.29,0.0,351.13,34.38,22.87,351.13,34.38,22.87,0.94,-0.15,-0.31,0.07
0.0,33.75,-10.31,28.5,33.75,-10.31,28.5,0.92,-0.21,0.16,-0.28,0.0,351.94,32.75,23.31,351.94,32.75,23.31,0.94,-0.16,-0.3,0.07
0.0,31.44,-10.44,24.69,31.44,-10.44,24.69,0.94,-0.18,0.15,-0.26,0.0,353.56,31.69,24.31,353.56,31.69,24.31,0.94,-0.17,-0.29,0.05
0.0,29.37,-10.81,21.06,29.37,-10.81,21.06,0.95,-0.15,0.14,-0.25,0.0,355.0,31.31,25.0,355.0,31.31,25.0,0.94,-0.18,-0.28,0.03
0.0,29.44,-11.0,17.56,29.44,-11.0,17.56,0.95,-0.12,0.13,-0.25,0.0,357.44,30.31,25.44,357.44,30.31,25.44,0.94,-0.19,-0.27,0.02
0.0,29.75,-11.56,16.06,29.75,-11.56,16.06,0.95,-0.1,0.14,-0.25,0.0,359.06,27.81,24.81,359.06,27.81,24.81,0.95,-0.19,-0.24,0.01
0.0,30.06,-12.75,14.81,30.06,-12.75,14.81,0.95,-0.09,0.14,-0.26,0.0,359.5,24.62,22.5,359.5,24.62,22.5,0.96,-0.17,-0.21,0.0
0.0,31.25,-13.81,13.5,31.25,-13.81,13.5,0.95,-0.07,0.15,-0.27,0.0,359.31,22.25,19.12,359.31,22.25,19.12,0.97,-0.15,-0.19,0.01
0.0,33.81,-16.44,14.31,33.81,-16.44,14.31,0.93,-0.08,0.19,-0.29,0.0,359.81,21.37,15.69,359.81,21.37,15.69,0.98,-0.12,-0.18,-0.0
0.0,34.44,-23.69,19.0,34.44,-23.69,19.0,0.92,-0.09,0.27,-0.28,0.0,359.69,19.31,12.25,359.69,19.31,12.25,0.98,-0.09,-0.16,0.01
0.0,32.19,-32.88,23.0,32.19,-32.88,23.0,0.9,-0.09,0.34,-0.26,0.0,355.94,16.75,6.25,355.94,16.75,6.25,0.99,-0.03,-0.15,0.04
0.0,34.38,-36.25,26.75,34.38,-36.25,26.75,0.88,-0.09,0.36,-0.28,0.0,354.81,17.5,1.0,354.81,17.5,1.0,0.99,0.0,-0.16,0.04
0.0,37.25,-36.06,26.81,37.25,-36.06,26.81,0.88,-0.08,0.37,-0.3,0.0,356.38,18.5,-0.19,356.38,18.5,-0.19,0.99,0.01,-0.16,0.03
0.0,40.94,-37.81,30.69,40.94,-37.81,30.69,0.84,-0.1,0.41,-0.33,0.0,357.5,19.12,-2.5,357.5,19.12,-2.5,0.99,0.02,-0.17,0.02
0.0,43.56,-43.06,39.81,43.56,-43.06,39.81,0.81,-0.1,0.47,-0.33,0.0,356.06,19.12,-7.5,356.06,19.12,-7.5,0.98,0.07,-0.16,0.03
0.0,44.75,-46.06,42.75,44.75,-46.06,42.75,0.8,-0.09,0.49,-0.33,0.0,355.69,18.81,-10.13,355.69,18.81,-10.13,0.98,0.1,-0.16,0.04
0.0,48.44,-46.69,44.13,48.44,-46.69,44.13,0.79,-0.08,0.5,-0.35,0.0,356.75,19.19,-12.06,356.75,19.19,-12.06,0.98,0.11,-0.16,0.03
0.0,49.69,-48.75,49.56,49.69,-48.75,49.56,0.77,-0.08,0.53,-0.36,0.0,358.0,21.0,-13.0,358.0,21.0,-13.0,0.97,0.11,-0.19,0.01
0.0,49.69,-51.13,51.94,49.69,-51.13,51.94,0.76,-0.07,0.55,-0.35,0.0,0.25,24.19,-14.56,0.25,24.19,-14.56,0.97,0.12,-0.22,-0.01
0.0,49.5,-52.31,47.81,49.5,-52.31,47.81,0.76,-0.05,0.54,-0.35,0.0,1.75,25.37,-15.94,1.75,25.37,-15.94,0.97,0.13,-0.22,-0.02
0.0,49.0,-52.88,45.06,49.0,-52.88,45.06,0.77,-0.03,0.54,-0.35,0.0,1.69,24.62,-17.75,1.69,24.62,-17.75,0.97,0.15,-0.21,-0.01
0.0,48.31,-54.69,46.0,48.31,-54.69,46.0,0.76,-0.02,0.55,-0.34,0.0,0.75,22.94,-19.5,0.75,22.94,-19.5,0.97,0.16,-0.2,-0.0
0.0,47.63,-55.75,45.19,47.63,-55.75,45.19,0.77,-0.01,0.55,-0.34,0.0,0.37,21.25,-19.75,0.37,21.25,-19.75,0.97,0.16,-0.19,-0.0
0.0,47.75,-55.13,41.06,47.75,-55.13,41.06,0.78,-0.0,0.53,-0.35,0.0,1.5,19.94,-19.25,1.5,19.94,-19.25,0.97,0.16,-0.18,-0.01
0.0,47.75,-53.5,35.94,47.75,-53.5,35.94,0.79,0.01,0.5,-0.35,0.0,2.5,18.37,-19.06,2.5,18.37,-19.06,0.97,0.16,-0.17,-0.02
0.0,46.5,-53.38,33.19,46.5,-53.38,33.19,0.8,0.01,0.5,-0.34,0.0,1.94,16.94,-19.94,1.94,16.94,-19.94,0.97,0.16,-0.15,-0.02
0.0,45.81,-52.81,30.44,45.81,-52.81,30.44,0.81,0.02,0.48,-0.34,0.0,1.5,16.44,-20.69,1.5,16.44,-20.69,0.97,0.17,-0.15,-0.01
0.0,46.88,-51.38,26.75,46.88,-51.38,26.75,0.81,0.03,0.47,-0.35,0.0,1.94,16.25,-20.94,1.94,16.25,-20.94,0.97,0.17,-0.15,-0.02
0.0,46.38,-50.38,21.5,46.38,-50.38,21.5,0.82,0.05,0.45,-0.35,0.0,3.13,15.69,-19.12,3.13,15.69,-19.12,0.98,0.15,-0.14,-0.02
0.0,44.38,-45.88,14.0,44.38,-45.88,14.0,0.85,0.06,0.4,-0.35,0.0,3.25,14.13,-16.94,3.25,14.13,-16.94,0.98,0.14,-0.12,-0.02
0.0,45.06,-40.19,9.44,45.06,-40.19,9.44,0.86,0.07,0.34,-0.36,0.0,1.81,12.44,-16.37,1.81,12.44,-16.37,0.98,0.14,-0.11,-0.01
0.0,47.0,-37.88,8.25,47.0,-37.88,8.25,0.87,0.08,0.32,-0.38,0.0,0.94,11.5,-18.12,0.94,11.5,-18.12,0.98,0.15,-0.1,-0.01
0.0,46.81,-35.44,6.56,46.81,-35.44,6.56,0.88,0.08,0.29,-0.37,0.0,0.37,10.81,-20.37,0.37,10.81,-20.37,0.98,0.17,-0.1,-0.0
0.0,45.63,-32.0,4.75,45.63,-32.0,4.75,0.89,0.07,0.26,-0.38,0.0,359.88,10.38,-21.75,359.88,10.38,-21.75,0.98,0.19,-0.09,0.0
0.0,48.5,-29.44,4.63,48.5,-29.44,4.63,0.88,0.07,0.24,-0.41,0.0,359.81,10.13,-21.37,359.81,10.13,-21.37,0.98,0.18,-0.09,0.0
0.0,50.44,-27.25,5.63,50.44,-27.25,5.63,0.88,0.05,0.23,-0.41,0.0,358.44,10.5,-20.31,358.44,10.5,-20.31,0.98,0.18,-0.09,0.01
0.0,50.19,-24.81,7.31,50.19,-24.81,7.31,0.88,0.03,0.22,-0.41,0.0,357.25,10.19,-18.5,357.25,10.19,-18.5,0.98,0.15,-0.08,0.03
0.0,49.44,-23.25,9.5,49.44,-23.25,9.5,0.89,0.01,0.22,-0.41,0.0,355.25,8.81,-14.0,355.25,8.81,-14.0,0.99,0.11,-0.07,0.04
0.0,50.31,-23.5,12.19,50.31,-23.5,12.19,0.88,-0.01,0.23,-0.42,0.0,356.44,9.13,-10.94,356.44,9.13,-10.94,0.99,0.09,-0.08,0.02
0.0,51.31,-23.0,14.88,51.31,-23.0,14.88,0.88,-0.02,0.23,-0.42,0.0,358.5,11.94,-9.81,358.5,11.94,-9.81,0.99,0.08,-0.12,0.01
0.0,51.94,-22.12,18.12,51.94,-22.12,18.12,0.87,-0.06,0.25,-0.43,0.0,0.63,15.81,-8.31,0.63,15.81,-8.31,0.99,0.06,-0.15,-0.01
0.0,53.56,-22.87,23.81,53.56,-22.87,23.81,0.86,-0.08,0.27,-0.43,0.0,3.06,20.0,-7.31,3.06,20.0,-7.31,0.98,0.06,-0.19,-0.03
0.0,55.44,-24.25,27.69,55.44,-24.25,27.69,0.84,-0.1,0.3,-0.44,0.0,3.81,23.94,-7.69,3.81,23.94,-7.69,0.97,0.05,-0.22,-0.03
0.0,56.63,-24.0,28.81,56.63,-24.0,28.81,0.84,-0.1,0.3,-0.45,0.0,3.56,27.19,-5.63,3.56,27.19,-5.63,0.97,0.04,-0.24,-0.03
0.0,56.44,-23.56,30.37,56.44,-23.56,30.37,0.83,-0.12,0.31,-0.44,0.0,6.44,31.06,-2.5,6.44,31.06,-2.5,0.96,0.0,-0.27,-0.05
0.0,54.88,-24.5,34.31,54.88,-24.5,34.31,0.83,-0.15,0.33,-0.43,0.0,6.56,33.38,0.06,6.56,33.38,0.06,0.96,-0.02,-0.29,-0.06
0.0,56.25,-25.87,38.38,56.25,-25.87,38.38,0.81,-0.16,0.36,-0.44,0.0,5.94,34.13,1.69,5.94,34.13,1.69,0.95,-0.03,-0.3,-0.05
0.0,56.06,-27.12,40.69,56.06,-27.12,40.69,0.81,-0.16,0.37,-0.42,0.0,5.69,35.44,3.69,5.69,35.44,3.69,0.95,-0.05,-0.31,-0.05
0.0,54.0,-28.12,40.69,54.0,-28.12,40.69,0.81,-0.17,0.37,-0.41,0.0,5.06,36.88,5.31,5.06,36.88,5.31,0.95,-0.06,-0.32,-0.04
0.0,52.0,-29.12,41.94,52.0,-29.12,41.94,0.82,-0.18,0.39,-0.39,0.0,4.81,37.88,7.63,4.81,37.88,7.63,0.94,-0.08,-0.32,-0.04
0.0,50.44,-30.0,43.31,50.44,-30.0,43.31,0.82,-0.18,0.39,-0.38,0.0,5.19,37.88,9.94,5.19,37.88,9.94,0.94,-0.09,-0.32,-0.04
0.0,48.94,-28.75,41.0,48.94,-28.75,41.0,0.83,-0.18,0.37,-0.38,0.0,4.75,37.63,11.44,4.75,37.63,11.44,0.94,-0.1,-0.32,-0.04
0.0,45.81,-28.62,40.88,45.81,-28.62,40.88,0.84,-0.19,0.36,-0.36,0.0,5.5,38.0,12.88,5.5,38.0,12.88,0.94,-0.11,-0.32,-0.05
0.0,44.56,-28.56,41.5,44.56,-28.56,41.5,0.84,-0.2,0.36,-0.34,0.0,5.81,37.94,14.06,5.81,37.94,14.06,0.94,-0.12,-0.32,-0.05
0.0,42.5,-27.69,40.06,42.5,-27.69,40.06,0.86,-0.2,0.34,-0.33,0.0,140.19,37.44,15.25,140.19,37.44,15.25,0.32,-0.34,-0.0,-0.88
0.0,39.75,-26.31,37.63,39.75,-26.31,37.63,0.87,-0.2,0.32,-0.31,0.0,140.25,37.06,15.75,140.25,37.06,15.75,0.32,-0.34,0.0,-0.88
0.0,36.31,-24.94,36.25,36.31,-24.94,36.25,0.89,-0.21,0.3,-0.28,0.0,140.75,36.38,16.69,140.75,36.38,16.69,0.32,-0.34,0.01,-0.89
0.0,32.19,-23.25,34.5,32.19,-23.25,34.5,0.91,-0.21,0.27,-0.25,0.0,140.75,34.81,17.69,140.75,34.81,17.69,0.32,-0.33,0.03,-0.89
0.0,29.0,-21.81,32.81,29.0,-21.81,32.81,0.92,-0.21,0.25,-0.23,0.0,139.25,32.81,17.94,139.25,32.81,17.94,0.34,-0.31,0.03,-0.89
0.0,26.37,-20.56,31.0,26.37,-20.56,31.0,0.93,-0.2,0.23,-0.21,0.0,137.81,31.06,18.19,137.81,31.06,18.19,0.34,-0.3,0.04,-0.89
0.0,23.19,-19.31,28.69,23.19,-19.31,28.69,0.94,-0.19,0.21,-0.19,0.0,137.56,30.19,18.5,137.56,30.19,18.5,0.35,-0.3,0.04,-0.89
0.0,21.56,-18.81,26.5,21.56,-18.81,26.5,0.94,-0.18,0.21,-0.18,0.0,137.75,29.5,18.19,137.75,29.5,18.19,0.34,-0.29,0.04,-0.89
0.0,21.56,-18.87,24.94,21.56,-18.87,24.94,0.95,-0.17,0.2,-0.18,0.0,137.94,26.94,18.12,137.94,26.94,18.12,0.35,-0.26,0.06,-0.9
0.0,20.37,-18.44,23.56,20.37,-18.44,23.56,0.78,-0.06,0.25,-0.57,0.0,138.25,23.25,18.37,138.25,23.25,18.37,0.34,-0.24,0.07,-0.91
0.0,71.94,-18.25,22.25,71.94,-18.25,22.25,0.79,-0.05,0.24,-0.57,0.0,139.5,21.87,17.25,139.5,21.87,17.25,0.33,-0.23,0.06,-0.91
0.0,71.87,-18.37,20.44,71.87,-18.37,20.44,0.79,-0.04,0.23,-0.57,0.0,140.63,20.44,15.25,140.63,20.44,15.25,0.33,-0.21,0.06,-0.92
0.0,71.62,-18.69,19.31,71.62,-18.69,19.31,0.79,-0.03,0.23,-0.57,0.0,141.25,17.25,14.56,141.25,17.25,14.56,0.32,-0.18,0.07,-0.93
0.0,71.94,-19.25,18.87,71.94,-19.25,18.87,0.79,-0.03,0.23,-0.57,0.0,141.5,15.44,13.25,141.5,15.44,13.25,0.32,-0.16,0.06,-0.93
0.0,72.56,-19.56,18.25,72.56,-19.56,18.25,0.78,-0.02,0.23,-0.58,0.0,142.06,15.88,11.63,142.06,15.88,11.63,0.32,-0.16,0.04,-0.93
0.0,73.12,-19.69,17.94,73.12,-19.69,17.94,0.78,-0.01,0.23,-0.58,0.0,142.63,16.62,8.88,142.63,16.62,8.88,0.32,-0.16,0.02,-0.93
0.0,74.62,-20.69,17.87,74.62,-20.69,17.87,0.76,-0.0,0.24,-0.6,0.0,142.13,16.31,6.5,142.13,16.31,6.5,0.32,-0.15,0.0,-0.93
0.0,80.75,-25.06,20.62,80.75,-25.06,20.62,0.71,0.03,0.3,-0.64,3.0,141.75,16.0,4.69,141.75,16.0,4.69,0.32,-0.14,-0.01,-0.94
0.0,89.25,-32.63,30.31,89.25,-32.63,30.31,0.64,0.05,0.4,-0.65,3.0,142.0,16.06,2.94,142.0,16.06,2.94,0.32,-0.14,-0.03,-0.94
0.0,91.56,-38.13,38.0,91.56,-38.13,38.0,0.62,0.07,0.44,-0.64,3.0,142.38,16.31,0.19,142.38,16.31,0.19,0.32,-0.13,-0.05,-0.94
0.0,94.56,-40.88,39.5,94.56,-40.88,39.5,0.59,0.1,0.45,-0.66,3.0,141.94,16.25,-3.31,141.94,16.25,-3.31,0.33,-0.12,-0.08,-0.93
0.0,101.62,-42.25,43.63,101.62,-42.25,43.63,0.55,0.11,0.47,-0.68,3.0,140.75,14.81,-6.56,140.75,14.81,-6.56,0.33,-0.1,-0.1,-0.93
0.0,104.5,-44.06,51.06,104.5,-44.06,51.06,0.52,0.13,0.52,-0.67,3.0,139.19,12.06,-9.13,139.19,12.06,-9.13,0.35,-0.07,-0.11,-0.93
0.0,106.06,-45.81,52.44,106.06,-45.81,52.44,0.51,0.14,0.52,-0.67,3.0,138.19,9.81,-11.31,138.19,9.81,-11.31,0.35,-0.05,-0.12,-0.93
0.0,109.75,-46.63,52.19,109.75,-46.63,52.19,0.48,0.17,0.51,-0.69,3.0,137.88,8.94,-13.13,137.88,8.94,-13.13,0.36,-0.03,-0.13,-0.92
2.0,109.37,-47.56,51.13,109.37,-47.56,51.13,0.49,0.18,0.51,-0.69,3.0,137.75,8.13,-14.31,137.75,8.13,-14.31,0.36,-0.02,-0.14,-0.92
2.0,107.37,-49.13,51.13,107.37,-49.13,51.13,0.5,0.18,0.51,-0.68,3.0,137.44,7.19,-14.69,137.44,7.19,-14.69,0.36,-0.01,-0.14,-0.92
3.0,105.44,-50.75,49.0,105.44,-50.75,49.0,0.51,0.2,0.5,-0.67,3.0,136.94,5.75,-15.13,136.94,5.75,-15.13,0.36,0.0,-0.14,-0.92
3.0,103.75,-51.44,44.31,103.75,-51.44,44.31,0.53,0.21,0.47,-0.67,3.0,136.63,4.81,-16.12,136.63,4.81,-16.12,0.37,0.02,-0.15,-0.92
3.0,102.5,-51.5,39.06,102.5,-51.5,39.06,0.54,0.21,0.46,-0.67,3.0,136.0,4.06,-17.12,136.0,4.06,-17.12,0.37,0.03,-0.15,-0.92
3.0,100.75,-52.44,37.44,100.75,-52.44,37.44,0.55,0.22,0.45,-0.66,3.0,135.31,3.25,-18.0,135.31,3.25,-18.0,0.38,0.04,-0.16,-0.91
3.0,99.06,-51.38,29.75,99.06,-51.38,29.75,0.58,0.22,0.4,-0.67,3.0,134.5,2.19,-18.19,134.5,2.19,-18.19,0.38,0.05,-0.15,-0.91
3.0,96.87,-45.38,16.37,96.87,-45.38,16.37,0.61,0.21,0.32,-0.69,3.0,133.69,1.0,-18.0,133.69,1.0,-18.0,0.39,0.06,-0.15,-0.91
3.0,96.31,-39.69,10.63,96.31,-39.69,10.63,0.63,0.2,0.27,-0.7,3.0,132.94,-0.12,-17.81,132.94,-0.12,-17.81,0.39,0.06,-0.14,-0.91
3.0,95.5,-37.06,8.81,95.5,-37.06,8.81,0.64,0.19,0.26,-0.7,3.0,132.5,-1.37,-17.12,132.5,-1.37,-17.12,0.4,0.07,-0.13,-0.91
3.0,94.06,-34.31,6.19,94.06,-34.31,6.19,0.65,0.18,0.22,-0.7,3.0,131.75,-2.13,-16.69,131.75,-2.13,-16.69,0.41,0.08,-0.12,-0.9
3.0,94.12,-30.31,2.31,94.12,-30.31,2.31,0.66,0.18,0.18,-0.71,3.0,130.63,-2.94,-16.0,130.63,-2.94,-16.0,0.42,0.08,-0.11,-0.9
3.0,94.25,-27.75,1.75,94.25,-27.75,1.75,0.66,0.16,0.18,-0.71,3.0,130.13,-3.31,-15.19,130.13,-3.31,-15.19,0.42,0.08,-0.11,-0.9
3.0,92.37,-27.19,3.94,92.37,-27.19,3.94,0.67,0.15,0.19,-0.7,3.0,129.63,-3.38,-14.69,129.63,-3.38,-14.69,0.42,0.08,-0.1,-0.9
3.0,92.12,-26.37,4.75,92.12,-26.37,4.75,0.67,0.14,0.19,-0.7,3.0,129.13,-3.5,-14.31,129.13,-3.5,-14.31,0.43,0.08,-0.1,-0.89
3.0,93.56,-25.0,5.13,93.56,-25.0,5.13,0.67,0.13,0.18,-0.71,3.0,128.38,-3.63,-14.0,128.38,-3.63,-14.0,0.43,0.08,-0.09,-0.89
3.0,93.69,-23.87,6.5,93.69,-23.87,6.5,0.67,0.12,0.18,-0.71,3.0,127.94,-3.31,-13.5,127.94,-3.31,-13.5,0.44,0.07,-0.09,-0.89
3.0,93.0,-23.31,8.75,93.0,-23.31,8.75,0.67,0.1,0.19,-0.71,3.0,127.94,-2.31,-12.75,127.94,-2.31,-12.75,0.44,0.06,-0.09,-0.89
3.0,93.12,-22.94,9.69,93.12,-22.94,9.69,0.67,0.09,0.19,-0.71,3.0,127.44,-1.19,-12.13,127.44,-1.19,-12.13,0.44,0.06,-0.09,-0.89
3.0,94.5,-22.12,10.5,94.5,-22.12,10.5,0.66,0.08,0.2,-0.72,3.0,127.06,0.5,-11.13,127.06,0.5,-11.13,0.44,0.04,-0.09,-0.89
3.0,95.31,-21.75,12.19,95.31,-21.75,12.19,0.66,0.07,0.21,-0.72,3.0,128.06,3.13,-9.63,128.06,3.13,-9.63,0.44,0.01,-0.09,-0.9
3.0,96.0,-22.12,14.88,96.0,-22.12,14.88,0.65,0.06,0.23,-0.72,3.0,128.81,5.94,-8.44,128.81,5.94,-8.44,0.43,-0.02,-0.09,-0.9
3.0,97.25,-22.31,17.62,97.25,-22.31,17.62,0.64,0.05,0.24,-0.73,3.0,129.25,7.88,-7.75,129.25,7.88,-7.75,0.42,-0.04,-0.09,-0.9
3.0,98.62,-22.0,21.06,98.62,-22.0,21.06,0.62,0.03,0.27,-0.73,3.0,130.31,11.19,-7.0,130.31,11.19,-7.0,0.41,-0.07,-0.1,-0.9
3.0,101.12,-23.75,26.19,101.12,-23.75,26.19,0.6,0.03,0.31,-0.74,3.0,130.81,14.5,-6.31,130.81,14.5,-6.31,0.41,-0.1,-0.1,-0.9
3.0,103.0,-25.37,30.37,103.0,-25.37,30.37,0.59,0.03,0.33,-0.74,3.0,131.56,17.94,-5.25,131.56,17.94,-5.25,0.4,-0.14,-0.11,-0.9
3.0,103.37,-25.44,31.81,103.37,-25.44,31.81,0.57,0.02,0.35,-0.74,3.0,133.06,21.81,-4.19,133.06,21.81,-4.19,0.39,-0.17,-0.11,-0.9
3.0,106.69,-27.69,37.44,106.69,-27.69,37.44,0.55,0.03,0.38,-0.74,3.0,133.63,24.94,-2.38,133.63,24.94,-2.38,0.38,-0.2,-0.1,-0.9
3.0,107.94,-30.12,44.25,107.94,-30.12,44.25,0.53,0.03,0.44,-0.73,3.0,135.38,28.44,-0.44,135.38,28.44,-0.44,0.36,-0.24,-0.09,-0.9
3.0,106.37,-29.62,44.88,106.37,-29.62,44.88,0.54,0.01,0.43,-0.72,3.0,135.88,30.87,1.63,135.88,30.87,1.63,0.36,-0.26,-0.08,-0.89
3.0,106.06,-29.19,44.63,106.06,-29.19,44.63,0.54,0.01,0.44,-0.72,3.0,134.56,31.56,3.94,134.56,31.56,3.94,0.37,-0.27,-0.08,-0.89
3.0,108.37,-30.12,49.38,108.37,-30.12,49.38,0.52,0.01,0.47,-0.72,3.0,134.31,32.94,4.94,134.31,32.94,4.94,0.37,-0.28,-0.08,-0.88
3.0,106.19,-31.94,53.56,106.19,-31.94,53.56,0.52,0.01,0.5,-0.69,3.0,133.94,33.88,5.81,133.94,33.88,5.81,0.37,-0.29,-0.07,-0.88
3.0,100.69,-34.81,55.75,100.69,-34.81,55.75,0.55,0.0,0.52,-0.66,3.0,133.56,34.5,6.56,133.56,34.5,6.56,0.38,-0.29,-0.07,-0.88
3.0,97.87,-36.44,57.13,97.87,-36.44,57.13,0.56,0.0,0.54,-0.63,3.0,133.0,35.13,7.13,133.0,35.13,7.13,0.38,-0.3,-0.07,-0.87
3.0,93.31,-39.31,59.19,93.31,-39.31,59.19,0.58,0.0,0.56,-0.6,3.0,133.0,35.63,7.44,133.0,35.63,7.44,0.38,-0.31,-0.07,-0.87
3.0,88.75,-42.13,60.44,88.75,-42.13,60.44,0.6,0.0,0.56,-0.57,3.0,132.81,35.88,8.13,132.81,35.88,8.13,0.38,-0.31,-0.07,-0.87
3.0,84.0,-43.13,58.88,84.0,-43.13,58.88,0.63,-0.01,0.55,-0.55,3.0,132.81,36.31,8.69,132.81,36.31,8.69,0.38,-0.31,-0.07,-0.87
3.0,78.75,-42.81,53.5,78.75,-42.81,53.5,0.67,-0.02,0.52,-0.53,3.0,133.25,36.75,9.25,133.25,36.75,9.25,0.38,-0.32,-0.06,-0.87
3.0,74.44,-42.5,47.69,74.44,-42.5,47.69,0.7,-0.01,0.49,-0.52,3.0,132.94,36.25,9.88,132.94,36.25,9.88,0.38,-0.31,-0.06,-0.87
3.0,72.25,-42.5,43.63,72.25,-42.5,43.63,0.71,-0.0,0.48,-0.51,3.0,132.81,35.69,10.63,132.81,35.69,10.63,0.38,-0.31,-0.05,-0.87
3.0,70.56,-42.25,39.94,70.56,-42.25,39.94,0.73,0.0,0.46,-0.51,3.0,133.13,35.81,11.06,133.13,35.81,11.06,0.38,-0.32,-0.05,-0.87
3.0,68.69,-42.56,36.63,68.69,-42.56,36.63,0.74,0.01,0.45,-0.5,3.0,133.19,35.81,11.25,133.19,35.81,11.25,0.38,-0.32,-0.04,-0.87
3.0,67.56,-42.25,30.5,67.56,-42.25,30.5,0.75,0.03,0.42,-0.5,3.0,133.25,35.25,11.88,133.25,35.25,11.88,0.38,-0.31,-0.04,-0.87
3.0,68.06,-40.88,23.69,68.06,-40.88,23.69,0.76,0.06,0.39,-0.51,3.0,133.44,34.94,12.13,133.44,34.94,12.13,0.37,-0.31,-0.04,-0.87
3.0,67.94,-40.75,19.56,67.94,-40.75,19.56,0.77,0.08,0.37,-0.52,3.0,133.81,34.44,12.19,133.81,34.44,12.19,0.37,-0.31,-0.03,-0.87
3.0,64.37,-42.06,15.63,64.37,-42.06,15.63,0.78,0.1,0.36,-0.49,3.0,134.25,33.81,12.44,134.25,33.81,12.44,0.37,-0.31,-0.03,-0.88
3.0,61.5,-41.5,7.0,61.5,-41.5,7.0,0.8,0.14,0.33,-0.48,3.0,134.81,33.81,12.44,134.81,33.81,12.44,0.36,-0.31,-0.03,-0.88
3.0,63.13,-40.31,1.56,63.13,-40.31,1.56,0.8,0.19,0.29,-0.5,3.0,135.06,33.81,12.5,135.06,33.81,12.5,0.36,-0.31,-0.02,-0.88
3.0,66.06,-39.81,-3.94,66.06,-39.81,-3.94,0.78,0.22,0.27,-0.51,3.0,135.69,33.81,13.0,135.69,33.81,13.0,0.36,-0.31,-0.02,-0.88
3.0,65.87,-40.75,-7.0,65.87,-40.75,-7.0,0.79,0.24,0.27,-0.5,3.0,136.19,33.75,13.0,136.19,33.75,13.0,0.35,-0.31,-0.02,-0.88
3.0,64.19,-42.44,-11.06,64.19,-42.44,-11.06,0.78,0.27,0.27,-0.5,3.0,136.0,33.0,12.44,136.0,33.0,12.44,0.36,-0.3,-0.02,-0.89
3.0,67.31,-45.88,-13.69,67.31,-45.88,-13.69,0.76,0.3,0.28,-0.51,3.0,136.38,32.69,12.19,136.38,32.69,12.19,0.35,-0.3,-0.02,-0.89
3.0,68.69,-47.69,-16.87,68.69,-47.69,-16.87,0.74,0.33,0.28,-0.51,3.0,137.13,32.69,11.75,137.13,32.69,11.75,0.35,-0.29,-0.02,-0.89
3.0,70.75,-49.81,-19.44,70.75,-49.81,-19.44,0.72,0.35,0.28,-0.52,3.0,137.63,32.19,10.63,137.63,32.19,10.63,0.35,-0.29,-0.03,-0.89
3.0,74.06,-53.06,-20.06,74.06,-53.06,-20.06,0.7,0.37,0.29,-0.54,3.0,137.56,31.0,9.06,137.56,31.0,9.06,0.35,-0.27,-0.03,-0.9
3.0,74.56,-55.0,-23.87,74.56,-55.0,-23.87,0.69,0.4,0.29,-0.53,3.0,137.94,29.75,7.56,137.94,29.75,7.56,0.35,-0.26,-0.04,-0.9
3.0,76.19,-56.69,-29.44,76.19,-56.69,-29.44,0.68,0.42,0.29,-0.53,3.0,138.56,28.69,5.75,138.56,28.69,5.75,0.34,-0.25,-0.04,-0.91
3.0,80.5,-58.94,-31.31,80.5,-58.94,-31.31,0.64,0.45,0.28,-0.55,3.0,138.5,27.37,3.56,138.5,27.37,3.56,0.34,-0.23,-0.06,-0.91
3.0,82.5,-60.13,-30.56,82.5,-60.13,-30.56,0.64,0.45,0.29,-0.56,3.0,138.5,26.06,1.63,138.5,26.06,1.63,0.35,-0.22,-0.07,-0.91
3.0,83.5,-60.0,-33.38,83.5,-60.0,-33.38,0.63,0.46,0.27,-0.56,3.0,139.0,24.62,0.31,139.0,24.62,0.31,0.34,-0.2,-0.07,-0.92
3.0,90.81,-61.19,-32.25,90.81,-61.19,-32.25,0.59,0.48,0.26,-0.6,3.0,139.56,23.62,-0.94,139.56,23.62,-0.94,0.34,-0.18,-0.08,-0.92
3.0,92.25,-60.38,-30.87,92.25,-60.38,-30.87,0.58,0.48,0.25,-0.61,3.0,140.0,21.81,-4.63,140.0,21.81,-4.63,0.34,-0.15,-0.11,-0.92
3.0,92.87,-59.56,-30.19,92.87,-59.56,-30.19,0.58,0.47,0.24,-0.62,3.0,139.0,19.12,-7.94,139.0,19.12,-7.94,0.35,-0.12,-0.12,-0.92
3.0,96.06,-58.31,-29.69,96.06,-58.31,-29.69,0.57,0.47,0.21,-0.64,3.0,138.31,16.5,-9.19,138.31,16.5,-9.19,0.35,-0.1,-0.12,-0.92
3.0,98.94,-56.94,-28.87,98.94,-56.94,-28.87,0.56,0.47,0.19,-0.66,3.0,139.31,14.88,-10.25,139.31,14.88,-10.25,0.34,-0.09,-0.13,-0.93
3.0,100.62,-55.06,-28.0,100.62,-55.06,-28.0,0.55,0.46,0.18,-0.67,3.0,139.25,12.69,-11.38,139.25,12.69,-11.38,0.35,-0.06,-0.13,-0.93
3.0,101.69,-53.31,-27.75,101.69,-53.31,-27.75,0.55,0.46,0.16,-0.68,3.0,137.94,9.56,-12.25,137.94,9.56,-12.25,0.36,-0.03,-0.13,-0.92
3.0,103.69,-50.88,-28.44,103.69,-50.88,-28.44,0.54,0.45,0.13,-0.7,3.0,136.63,6.69,-13.81,136.63,6.69,-13.81,0.37,-0.0,-0.14,-0.92
3.0,104.19,-47.5,-29.5,104.19,-47.5,-29.5,0.55,0.44,0.1,-0.7,3.0,135.94,5.13,-15.94,135.94,5.13,-15.94,0.37,0.01,-0.15,-0.92
3.0,101.75,-43.13,-30.69,101.75,-43.13,-30.69,0.58,0.42,0.07,-0.7,3.0,135.19,4.25,-17.0,135.19,4.25,-17.0,0.38,0.02,-0.15,-0.91
3.0,98.5,-39.63,-29.37,98.5,-39.63,-29.37,0.61,0.39,0.07,-0.69,3.0,134.13,3.38,-16.69,134.13,3.38,-16.69,0.39,0.03,-0.14,-0.91
3.0,93.5,-35.69,-26.5,93.5,-35.69,-26.5,0.65,0.35,0.07,-0.67,3.0,132.88,3.13,-16.56,132.88,3.13,-16.56,0.4,0.03,-0.14,-0.91
3.0,90.37,-29.31,-21.62,90.37,-29.31,-21.62,0.68,0.27,0.05,-0.68,3.0,131.0,4.31,-15.75,131.0,4.31,-15.75,0.41,0.02,-0.14,-0.9
3.0,89.75,-19.94,-14.0,89.75,-19.94,-14.0,0.7,0.17,0.04,-0.69,3.0,130.94,6.81,-11.63,130.94,6.81,-11.63,0.41,-0.01,-0.12,-0.9
3.0,84.94,-12.69,-6.75,84.94,-12.69,-6.75,0.75,0.1,0.05,-0.65,3.0,134.19,11.31,-5.19,134.19,11.31,-5.19,0.39,-0.07,-0.08,-0.92
3.0,75.87,-12.94,-1.25,75.87,-12.94,-1.25,0.79,0.08,0.1,-0.6,3.0,137.63,16.75,-0.63,137.63,16.75,-0.63,0.36,-0.13,-0.06,-0.92
3.0,74.62,-16.81,0.63,74.62,-16.81,0.63,0.78,0.09,0.13,-0.6,3.0,139.38,21.25,1.88,139.38,21.25,1.88,0.34,-0.18,-0.05,-0.92
3.0,77.75,-19.69,3.13,77.75,-19.69,3.13,0.77,0.09,0.15,-0.62,3.0,140.13,23.31,3.44,140.13,23.31,3.44,0.33,-0.21,-0.04,-0.92
3.0,80.12,-22.25,11.19,80.12,-22.25,11.19,0.75,0.05,0.21,-0.63,3.0,139.75,25.44,5.0,139.75,25.44,5.0,0.34,-0.23,-0.04,-0.91
3.0,76.87,-26.19,20.25,76.87,-26.19,20.25,0.75,0.02,0.28,-0.6,3.0,138.94,28.12,5.56,138.94,28.12,5.56,0.34,-0.25,-0.05,-0.9
3.0,74.81,-29.37,23.19,74.81,-29.37,23.19,0.75,0.01,0.32,-0.58,3.0,138.63,31.37,6.25,138.63,31.37,6.25,0.34,-0.28,-0.05,-0.9
3.0,76.87,-29.94,21.87,76.87,-29.94,21.87,0.73,0.04,0.31,-0.6,3.0,138.31,33.06,7.0,138.31,33.06,7.0,0.34,-0.29,-0.05,-0.89
3.0,82.31,-28.87,21.69,82.31,-28.87,21.69,0.71,0.03,0.31,-0.63,3.0,137.69,32.69,7.56,137.69,32.69,7.56,0.35,-0.28,-0.05,-0.89
3.0,81.69,-28.87,26.12,81.69,-28.87,26.12,0.72,0.0,0.34,-0.61,3.0,137.63,32.44,8.0,137.63,32.44,8.0,0.35,-0.28,-0.04,-0.89
3.0,79.0,-30.12,31.12,79.0,-30.12,31.12,0.72,-0.02,0.37,-0.59,3.0,138.63,32.88,8.19,138.63,32.88,8.19,0.33,-0.29,-0.04,-0.9
3.0,80.81,-29.81,31.69,80.81,-29.81,31.69,0.71,-0.01,0.35,-0.61,3.0,141.44,33.25,8.25,141.44,33.25,8.25,0.31,-0.29,-0.03,-0.9
3.0,83.5,-28.12,28.0,83.5,-28.12,28.0,0.7,0.0,0.32,-0.63,3.0,142.75,31.56,7.81,142.75,31.56,7.81,0.3,-0.27,-0.03,-0.91
3.0,83.37,-24.87,24.69,83.37,-24.87,24.69,0.71,-0.0,0.3,-0.64,3.0,144.63,29.31,7.44,144.63,29.31,7.44,0.29,-0.25,-0.01,-0.92
3.0,82.44,-19.94,18.56,82.44,-19.94,18.56,0.73,-0.0,0.2,-0.65,3.0,145.56,25.69,8.69,145.56,25.69,8.69,0.29,-0.22,0.01,-0.93
3.0,84.56,-10.88,10.13,84.56,-10.88,10.13,0.73,-0.0,0.13,-0.67,3.0,145.38,22.25,9.25,145.38,22.25,9.25,0.29,-0.2,0.02,-0.94
3.0,86.75,-5.06,1.19,86.75,-5.06,1.19,0.73,0.02,0.04,-0.69,3.0,146.44,21.62,8.69,146.44,21.62,8.69,0.28,-0.2,0.02,-0.94
3.0,88.12,-2.25,-5.31,88.12,-2.25,-5.31,0.72,0.05,-0.02,-0.69,3.0,147.75,20.62,8.94,147.75,20.62,8.94,0.27,-0.19,0.02,-0.94
3.0,90.81,0.37,-10.63,90.81,0.37,-10.63,0.68,0.07,-0.09,-0.72,3.0,148.56,18.12,9.25,148.56,18.12,9.25,0.27,-0.17,0.03,-0.95
3.0,94.44,3.38,-16.75,94.44,3.38,-16.75,0.67,0.08,-0.14,-0.73,3.0,148.56,14.88,9.38,148.56,14.88,9.38,0.27,-0.15,0.04,-0.95
3.0,97.19,1.75,-21.25,97.19,1.75,-21.25,0.64,0.13,-0.15,-0.74,3.0,148.38,13.38,9.13,148.38,13.38,9.13,0.27,-0.13,0.04,-0.95
3.0,102.37,-2.19,-26.31,102.37,-2.19,-26.31,0.6,0.17,-0.17,-0.76,3.0,148.5,13.44,7.81,148.5,13.44,7.81,0.27,-0.13,0.03,-0.95
3.0,103.56,-4.19,-31.56,103.56,-4.19,-31.56,0.59,0.21,-0.2,-0.76,3.0,148.81,15.19,5.69,148.81,15.19,5.69,0.27,-0.14,0.01,-0.95
3.0,105.62,-5.88,-35.44,105.62,-5.88,-35.44,0.58,0.23,-0.22,-0.75,3.0,148.19,15.88,5.31,148.19,15.88,5.31,0.27,-0.15,0.01,-0.95
3.0,104.5,-4.25,-39.88,104.5,-4.25,-39.88,0.57,0.24,-0.26,-0.74,3.0,147.81,16.06,6.63,147.81,16.06,6.63,0.27,-0.15,0.02,-0.95
3.0,107.56,-3.44,-43.19,107.56,-3.44,-43.19,0.55,0.25,-0.28,-0.75,3.0,148.13,16.56,7.88,148.13,16.56,7.88,0.27,-0.16,0.03,-0.95
3.0,107.56,-5.88,-45.88,107.56,-5.88,-45.88,0.54,0.28,-0.28,-0.74,3.0,148.31,16.44,8.25,148.31,16.44,8.25,0.27,-0.16,0.03,-0.95
3.0,108.37,-5.13,-48.56,108.37,-5.13,-48.56,0.53,0.28,-0.3,-0.74,3.0,148.5,15.56,8.44,148.5,15.56,8.44,0.27,-0.15,0.03,-0.95
3.0,114.94,-8.5,-52.31,114.94,-8.5,-52.31,0.48,0.3,-0.32,-0.76,3.0,148.5,14.38,8.88,148.5,14.38,8.88,0.27,-0.14,0.04,-0.95
3.0,122.0,-15.13,-52.31,122.0,-15.13,-52.31,0.43,0.34,-0.3,-0.78,3.0,148.38,13.81,8.94,148.38,13.81,8.94,0.27,-0.14,0.04,-0.95
3.0,125.0,-18.62,-52.44,125.0,-18.62,-52.44,0.41,0.35,-0.29,-0.79,3.0,148.44,13.75,9.0,148.44,13.75,9.0,0.27,-0.14,0.04,-0.95
3.0,126.75,-19.69,-54.13,126.75,-19.69,-54.13,0.39,0.37,-0.3,-0.79,3.0,148.44,13.75,9.13,148.44,13.75,9.13,0.27,-0.14,0.04,-0.95
3.0,127.56,-20.19,-54.5,127.56,-20.19,-54.5,0.38,0.37,-0.3,-0.79,3.0,148.38,13.75,9.19,148.38,13.75,9.19,0.27,-0.14,0.04,-0.95
3.0,128.56,-21.19,-55.56,128.56,-21.19,-55.56,0.38,0.38,-0.31,-0.79,3.0,148.44,13.44,9.38,148.44,13.44,9.38,0.27,-0.13,0.05,-0.95
3.0,129.31,-20.94,-57.25,129.31,-20.94,-57.25,0.37,0.38,-0.33,-0.78,3.0,148.44,12.81,9.69,148.44,12.81,9.69,0.27,-0.13,0.05,-0.95
3.0,131.19,-21.5,-58.63,131.19,-21.5,-58.63,0.35,0.39,-0.33,-0.79,3.0,149.06,12.13,9.88,149.06,12.13,9.88,0.26,-0.12,0.05,-0.96
3.0,132.88,-23.0,-59.13,132.88,-23.0,-59.13,0.34,0.4,-0.33,-0.79,3.0,149.56,10.44,10.0,149.56,10.44,10.0,0.26,-0.1,0.06,-0.96
3.0,133.31,-24.12,-59.88,133.31,-24.12,-59.88,0.33,0.41,-0.33,-0.78,3.0,150.56,7.63,10.06,150.56,7.63,10.06,0.25,-0.08,0.07,-0.96
3.0,134.5,-25.44,-60.94,134.5,-25.44,-60.94,0.33,0.42,-0.33,-0.78,3.0,151.81,4.5,10.94,151.81,4.5,10.94,0.24,-0.06,0.09,-0.97
3.0,135.19,-25.94,-61.31,135.19,-25.94,-61.31,0.32,0.42,-0.34,-0.78,3.0,152.5,2.19,11.19,152.5,2.19,11.19,0.24,-0.04,0.09,-0.97
3.0,135.19,-24.87,-62.0,135.19,-24.87,-62.0,0.32,0.41,-0.35,-0.78,3.0,152.56,1.12,9.94,152.56,1.12,9.94,0.24,-0.03,0.08,-0.97
3.0,136.06,-24.19,-63.5,136.06,-24.19,-63.5,0.31,0.41,-0.36,-0.78,3.0,152.75,0.88,8.81,152.75,0.88,8.81,0.23,-0.03,0.07,-0.97
3.0,136.19,-24.5,-63.25,136.19,-24.5,-63.25,0.31,0.41,-0.35,-0.78,3.0,153.31,1.19,8.56,153.31,1.19,8.56,0.23,-0.03,0.07,-0.97
3.0,135.06,-24.19,-62.38,135.06,-24.19,-62.38,0.32,0.41,-0.35,-0.78,3.0,153.38,1.5,7.94,153.38,1.5,7.94,0.23,-0.03,0.06,-0.97
3.0,134.88,-24.37,-63.0,134.88,-24.37,-63.0,0.32,0.41,-0.35,-0.78,3.0,153.06,1.81,6.88,153.06,1.81,6.88,0.23,-0.03,0.05,-0.97
3.0,134.56,-24.25,-63.13,134.56,-24.25,-63.13,0.33,0.41,-0.36,-0.77,3.0,153.06,1.88,6.38,153.06,1.88,6.38,0.23,-0.03,0.05,-0.97
3.0,134.38,-23.25,-65.87,134.38,-23.25,-65.87,0.32,0.42,-0.38,-0.76,3.0,152.88,1.31,6.25,152.88,1.31,6.25,0.23,-0.02,0.05,-0.97
3.0,132.75,-22.12,-67.87,132.75,-22.12,-67.87,0.33,0.42,-0.39,-0.75,3.0,152.81,0.88,6.31,152.81,0.88,6.31,0.23,-0.02,0.05,-0.97
3.0,126.87,-18.62,-68.25,126.87,-18.62,-68.25,0.37,0.41,-0.39,-0.74,3.0,152.88,1.0,6.19,152.88,1.0,6.19,0.23,-0.02,0.05,-0.97
3.0,123.94,-17.94,-67.94,123.94,-17.94,-67.94,0.39,0.42,-0.38,-0.73,3.0,152.94,1.19,6.13,152.94,1.19,6.13,0.23,-0.02,0.05,-0.97
3.0,121.56,-16.69,-68.69,121.56,-16.69,-68.69,0.4,0.42,-0.39,-0.72,3.0,152.94,1.12,6.19,152.94,1.12,6.19,0.23,-0.02,0.05,-0.97
3.0,120.62,-15.81,-69.12,120.62,-15.81,-69.12,0.41,0.41,-0.4,-0.71,3.0,156.81,37.81,-73.75,156.81,37.81,-73.75,0.16,-0.29,-0.55,-0.77
3.0,118.87,-13.56,-70.31,118.87,-13.56,-70.31,0.42,0.41,-0.42,-0.7,3.0,156.94,37.75,-73.81,156.94,37.75,-73.81,0.15,-0.29,-0.55,-0.77
3.0,116.31,-9.88,-72.44,116.31,-9.88,-72.44,0.43,0.39,-0.45,-0.68,3.0,157.69,37.69,-73.87,157.69,37.69,-73.87,0.15,-0.29,-0.55,-0.77
3.0,113.19,-5.88,-75.06,113.19,-5.88,-75.06,0.44,0.38,-0.48,-0.66,3.0,158.31,37.81,-74.0,158.31,37.81,-74.0,0.15,-0.29,-0.55,-0.77
3.0,110.19,-2.63,-76.62,110.19,-2.63,-76.62,0.46,0.38,-0.49,-0.64,3.0,158.19,37.88,-74.25,158.19,37.88,-74.25,0.15,-0.3,-0.55,-0.76
3.0,105.44,0.06,-77.87,105.44,0.06,-77.87,0.48,0.38,-0.51,-0.61,3.0,158.88,37.94,-74.56,158.88,37.94,-74.56,0.14,-0.3,-0.55,-0.76
3.0,101.5,3.13,-80.44,101.5,3.13,-80.44,0.49,0.38,-0.53,-0.58,3.0,158.63,38.0,-74.37,158.63,38.0,-74.37,0.14,-0.3,-0.55,-0.77
3.0,98.56,5.19,-81.37,98.56,5.19,-81.37,0.5,0.38,-0.53,-0.57,3.0,158.25,38.06,-73.75,158.25,38.06,-73.75,0.15,-0.29,-0.55,-0.77
3.0,95.37,7.13,-80.25,95.37,7.13,-80.25,0.52,0.37,-0.53,-0.56,3.0,158.13,37.75,-73.94,158.13,37.75,-73.94,0.15,-0.29,-0.55,-0.77
3.0,91.56,9.0,-81.44,91.56,9.0,-81.44,0.53,0.38,-0.54,-0.53,3.0,158.06,37.19,-74.5,158.06,37.19,-74.5,0.15,-0.29,-0.56,-0.76
3.0,87.37,11.25,-83.0,87.37,11.25,-83.0,0.55,0.38,-0.55,-0.51,3.0,157.19,37.13,-74.12,157.19,37.13,-74.12,0.15,-0.28,-0.56,-0.76
3.0,83.37,13.38,-83.44,83.37,13.38,-83.44,0.56,0.38,-0.55,-0.49,3.0,155.56,37.38,-73.25,155.56,37.38,-73.25,0.17,-0.28,-0.56,-0.77
3.0,79.56,15.44,-83.19,79.56,15.44,-83.19,0.58,0.38,-0.55,-0.47,2.0,155.81,36.94,-73.31,155.81,36.94,-73.31,0.16,-0.27,-0.56,-0.77
3.0,75.12,17.94,-83.56,75.12,17.94,-83.56,0.59,0.38,-0.55,-0.45,2.0,156.06,36.25,-73.69,156.06,36.25,-73.69,0.16,-0.27,-0.56,-0.77
3.0,70.5,20.31,-83.87,70.5,20.31,-83.87,0.61,0.38,-0.55,-0.42,2.0,154.69,35.75,-73.87,154.69,35.75,-73.87,0.17,-0.26,-0.57,-0.76
3.0,66.31,22.31,-84.19,66.31,22.31,-84.19,0.62,0.38,-0.56,-0.39,2.0,153.63,35.56,-74.06,153.63,35.56,-74.06,0.18,-0.24,-0.57,-0.76
3.0,58.63,25.5,-85.69,58.63,25.5,-85.69,0.64,0.4,-0.56,-0.34,2.0,151.56,34.69,-74.69,151.56,34.69,-74.69,0.19,-0.23,-0.58,-0.76
3.0,51.25,28.5,-87.19,51.25,28.5,-87.19,0.65,0.41,-0.56,-0.3,2.0,151.44,33.81,-75.94,151.44,33.81,-75.94,0.19,-0.22,-0.59,-0.75
3.0,46.88,30.62,-89.25,46.88,30.62,-89.25,0.65,0.41,-0.57,-0.27,2.0,152.44,32.81,-77.19,152.44,32.81,-77.19,0.18,-0.22,-0.6,-0.75
3.0,43.06,32.63,-91.5,43.06,32.63,-91.5,0.65,0.42,-0.58,-0.25,2.0,154.44,31.44,-78.87,154.44,31.44,-78.87,0.17,-0.21,-0.61,-0.74
3.0,39.38,34.25,-93.37,39.38,34.25,-93.37,0.65,0.43,-0.59,-0.23,2.0,155.31,30.81,-79.94,155.31,30.81,-79.94,0.16,-0.21,-0.62,-0.74
3.0,35.31,35.75,-94.81,35.31,35.75,-94.81,0.65,0.44,-0.59,-0.2,2.0,153.38,30.12,-83.19,153.38,30.12,-83.19,0.18,-0.19,-0.65,-0.71
3.0,31.44,37.06,-96.69,31.44,37.06,-96.69,0.65,0.45,-0.59,-0.18,2.0,148.81,29.56,-87.31,148.81,29.56,-87.31,0.2,-0.15,-0.68,-0.69
3.0,28.75,37.44,-97.62,28.75,37.44,-97.62,0.65,0.46,-0.59,-0.17,2.0,145.63,26.75,-90.31,145.63,26.75,-90.31,0.21,-0.1,-0.71,-0.66
3.0,26.69,37.13,-98.0,26.69,37.13,-98.0,0.65,0.48,-0.57,-0.15,2.0,143.19,23.56,-97.87,143.19,23.56,-97.87,0.21,-0.06,-0.77,-0.6
3.0,24.75,36.75,-97.75,24.75,36.75,-97.75,0.65,0.48,-0.57,-0.14,2.0,142.38,21.0,-106.87,142.38,21.0,-106.87,0.19,-0.03,-0.8,-0.56
3.0,22.94,36.63,-97.19,22.94,36.63,-97.19,0.66,0.49,-0.55,-0.13,2.0,148.19,15.13,-108.37,148.19,15.13,-108.37,0.15,0.02,-0.81,-0.56
3.0,20.87,36.81,-98.25,20.87,36.81,-98.25,0.65,0.5,-0.55,-0.12,2.0,150.69,10.38,-112.75,150.69,10.38,-112.75,0.15,0.06,-0.84,-0.52
3.0,19.0,37.44,-101.19,19.0,37.44,-101.19,0.64,0.51,-0.56,-0.11,2.0,136.13,14.31,-119.75,136.13,14.31,-119.75,0.21,0.1,-0.86,-0.45
3.0,16.12,38.69,-104.75,16.12,38.69,-104.75,0.63,0.52,-0.57,-0.09,2.0,116.81,18.69,-126.0,116.81,18.69,-126.0,0.26,0.15,-0.88,-0.37
3.0,13.25,39.25,-106.19,13.25,39.25,-106.19,0.62,0.53,-0.57,-0.07,2.0,96.62,22.06,-137.69,96.62,22.06,-137.69,0.26,0.17,-0.91,-0.27
3.0,16.81,36.13,-103.25,16.81,36.13,-103.25,0.63,0.54,-0.55,-0.09,2.0,336.5,19.5,-141.25,336.5,19.5,-141.25,0.24,0.19,-0.91,-0.27
3.0,17.56,34.19,-104.56,17.56,34.19,-104.56,0.61,0.57,-0.54,-0.09,2.0,330.75,6.81,-136.94,330.75,6.81,-136.94,0.15,0.23,-0.9,-0.34
3.0,17.06,32.88,-107.25,17.06,32.88,-107.25,0.6,0.59,-0.54,-0.09,2.0,322.06,-8.31,-136.75,322.06,-8.31,-136.75,0.04,0.3,-0.88,-0.37
3.0,17.31,31.62,-109.69,17.31,31.62,-109.69,0.59,0.6,-0.54,-0.09,2.0,318.75,-10.5,-136.69,318.75,-10.5,-136.69,0.04,0.33,-0.87,-0.38
3.0,17.5,30.75,-111.75,17.5,30.75,-111.75,0.57,0.61,-0.54,-0.09,2.0,315.31,-15.81,-139.25,315.31,-15.81,-139.25,-0.01,0.35,-0.86,-0.37
3.0,17.56,29.69,-114.37,17.56,29.69,-114.37,0.55,0.63,-0.54,-0.09,2.0,201.06,-24.19,-140.19,201.06,-24.19,-140.19,-0.07,0.38,-0.84,-0.38
3.0,17.75,28.19,-117.44,17.75,28.19,-117.44,0.53,0.65,-0.54,-0.08,2.0,214.63,-32.19,-141.25,214.63,-32.19,-141.25,-0.12,0.43,-0.81,-0.39
3.0,18.25,26.62,-120.44,18.25,26.62,-120.44,0.51,0.66,-0.54,-0.08,2.0,224.5,-38.88,-143.63,224.5,-38.88,-143.63,-0.16,0.47,-0.77,-0.4
3.0,19.19,25.0,-123.25,19.19,25.0,-123.25,0.49,0.68,-0.54,-0.08,2.0,231.56,-43.81,-146.81,231.56,-43.81,-146.81,-0.19,0.51,-0.74,-0.4
3.0,20.87,22.31,-127.06,20.87,22.31,-127.06,0.45,0.71,-0.54,-0.09,2.0,230.5,-43.13,-147.69,230.5,-43.13,-147.69,-0.19,0.52,-0.74,-0.39
3.0,22.44,19.25,-131.5,22.44,19.25,-131.5,0.41,0.74,-0.53,-0.08,2.0,239.38,-46.69,-152.63,239.38,-46.69,-152.63,-0.22,0.54,-0.72,-0.38
3.0,24.25,16.12,-136.75,24.25,16.12,-136.75,0.36,0.76,-0.53,-0.08,2.0,245.69,-49.25,-156.75,245.69,-49.25,-156.75,-0.24,0.56,-0.7,-0.38
3.0,248.13,12.94,-141.63,248.13,12.94,-141.63,0.32,0.78,-0.53,-0.08,2.0,249.75,-51.06,-159.19,249.75,-51.06,-159.19,-0.26,0.56,-0.69,-0.37
3.0,247.06,10.13,-146.19,247.06,10.13,-146.19,0.28,0.8,-0.53,-0.08,2.0,254.75,-54.38,-161.75,254.75,-54.38,-161.75,-0.29,0.57,-0.67,-0.38
3.0,244.69,7.19,-151.19,244.69,7.19,-151.19,0.23,0.82,-0.51,-0.07,2.0,257.13,-56.31,-163.56,257.13,-56.31,-163.56,-0.31,0.57,-0.66,-0.38
3.0,241.94,4.81,-155.94,241.94,4.81,-155.94,0.19,0.84,-0.5,-0.07,2.0,261.44,-58.75,-166.56,261.44,-58.75,-166.56,-0.32,0.57,-0.65,-0.38
3.0,239.5,3.38,-159.75,239.5,3.38,-159.75,0.16,0.86,-0.48,-0.06,2.0,265.19,-60.31,-169.31,265.19,-60.31,-169.31,-0.34,0.57,-0.65,-0.37
3.0,238.13,2.13,-163.44,238.13,2.13,-163.44,0.12,0.87,-0.48,-0.05,2.0,269.38,-62.06,-173.56,269.38,-62.06,-173.56,-0.37,0.57,-0.63,-0.36
3.0,238.75,1.06,-167.38,238.75,1.06,-167.38,0.09,0.86,-0.49,-0.04,2.0,273.0,-62.94,-177.63,273.0,-62.94,-177.63,-0.38,0.57,-0.63,-0.36
3.0,240.31,0.56,-169.31,240.31,0.56,-169.31,0.08,0.86,-0.5,-0.04,2.0,274.31,-62.88,-177.69,274.31,-62.88,-177.69,-0.39,0.57,-0.63,-0.36
3.0,241.5,0.0,-169.56,241.5,0.0,-169.56,0.07,0.85,-0.51,-0.05,2.0,276.75,-64.31,178.19,276.75,-64.31,178.19,-0.4,0.57,-0.62,-0.35
3.0,242.94,-0.88,-170.56,242.94,-0.88,-170.56,0.06,0.85,-0.52,-0.05,2.0,279.25,-65.06,175.81,279.25,-65.06,175.81,-0.41,0.57,-0.62,-0.35
3.0,243.06,-1.69,-171.06,243.06,-1.69,-171.06,0.06,0.85,-0.52,-0.06,2.0,278.75,-66.0,175.38,278.75,-66.0,175.38,-0.42,0.57,-0.61,-0.36
3.0,243.44,-2.56,-171.38,243.44,-2.56,-171.38,0.05,0.85,-0.52,-0.06,3.0,279.25,-66.87,173.56,279.25,-66.87,173.56,-0.42,0.57,-0.61,-0.36
3.0,242.63,-3.06,-170.31,242.63,-3.06,-170.31,0.06,0.85,-0.52,-0.07,3.0,279.69,-67.62,172.5,279.69,-67.62,172.5,-0.43,0.57,-0.6,-0.36
3.0,241.81,-3.69,-168.56,241.81,-3.69,-168.56,0.07,0.85,-0.51,-0.08,3.0,281.19,-68.37,169.69,281.19,-68.37,169.69,-0.44,0.57,-0.6,-0.36
3.0,241.13,-5.06,-167.75,241.13,-5.06,-167.75,0.07,0.86,-0.5,-0.1,3.0,283.19,-68.87,167.19,283.19,-68.87,167.19,-0.45,0.56,-0.6,-0.35
3.0,240.19,-6.31,-166.88,240.19,-6.31,-166.88,0.07,0.86,-0.49,-0.11,3.0,283.06,-69.06,168.56,283.06,-69.06,168.56,-0.45,0.55,-0.61,-0.36
3.0,238.44,-7.31,-165.56,238.44,-7.31,-165.56,0.08,0.87,-0.48,-0.12,3.0,283.69,-70.06,168.63,283.69,-70.06,168.63,-0.46,0.55,-0.6,-0.36
3.0,236.75,-8.06,-164.81,236.75,-8.06,-164.81,0.08,0.87,-0.47,-0.13,3.0,286.0,-70.94,163.06,286.0,-70.94,163.06,-0.47,0.54,-0.6,-0.35
3.0,235.81,-8.69,-165.06,235.81,-8.69,-165.06,0.08,0.87,-0.46,-0.13,3.0,284.69,-70.56,170.5,284.69,-70.56,170.5,-0.45,0.53,-0.62,-0.36
3.0,235.31,-8.81,-165.0,235.31,-8.81,-165.0,0.08,0.88,-0.46,-0.13,3.0,283.5,-71.06,175.75,283.5,-71.06,175.75,-0.46,0.52,-0.62,-0.36
3.0,234.88,-8.56,-165.0,234.88,-8.56,-165.0,0.08,0.88,-0.45,-0.13,3.0,285.63,-72.75,169.25,285.63,-72.75,169.25,-0.48,0.52,-0.61,-0.36
3.0,234.56,-8.56,-165.75,234.56,-8.56,-165.75,0.07,0.88,-0.45,-0.12,3.0,284.75,-72.56,173.13,284.75,-72.56,173.13,-0.47,0.51,-0.62,-0.36
3.0,234.5,-8.88,-165.44,234.5,-8.88,-165.44,0.08,0.88,-0.45,-0.13,3.0,283.5,-72.81,176.94,283.5,-72.81,176.94,-0.47,0.51,-0.62,-0.37
3.0,234.38,-9.31,-163.63,234.38,-9.31,-163.63,0.09,0.88,-0.45,-0.14,3.0,284.13,-74.0,174.94,284.13,-74.0,174.94,-0.48,0.5,-0.62,-0.37
3.0,234.5,-9.81,-162.38,234.5,-9.81,-162.38,0.09,0.87,-0.45,-0.15,3.0,284.81,-74.87,173.38,284.81,-74.87,173.38,-0.48,0.5,-0.61,-0.37
3.0,234.63,-10.19,-162.69,234.63,-10.19,-162.69,0.09,0.88,-0.45,-0.15,3.0,283.0,-74.94,178.88,283.0,-74.94,178.88,-0.47,0.49,-0.62,-0.38
3.0,234.5,-9.81,-163.13,234.5,-9.81,-163.13,0.09,0.88,-0.45,-0.14,3.0,283.13,-75.81,-179.5,283.13,-75.81,-179.5,-0.48,0.49,-0.62,-0.38
3.0,234.0,-9.31,-163.5,234.0,-9.31,-163.5,0.09,0.88,-0.45,-0.14,3.0,282.88,-75.5,-176.19,282.88,-75.5,-176.19,-0.48,0.48,-0.63,-0.38
3.0,233.56,-8.94,-163.5,233.56,-8.94,-163.5,0.09,0.88,-0.44,-0.13,3.0,281.69,-74.75,-170.06,281.69,-74.75,-170.06,-0.47,0.47,-0.64,-0.39
3.0,233.25,-9.0,-163.44,233.25,-9.0,-163.44,0.09,0.88,-0.44,-0.14,3.0,282.06,-75.25,-169.88,282.06,-75.25,-169.88,-0.48,0.47,-0.64,-0.38
3.0,233.13,-9.13,-163.69,233.13,-9.13,-163.69,0.09,0.88,-0.44,-0.13,3.0,282.19,-74.31,-167.56,282.19,-74.31,-167.56,-0.47,0.46,-0.65,-0.38
3.0,233.13,-9.56,-164.56,233.13,-9.56,-164.56,0.08,0.88,-0.44,-0.13,3.0,280.56,-72.69,-163.31,280.56,-72.69,-163.31,-0.45,0.45,-0.66,-0.38
3.0,233.25,-10.06,-164.75,233.25,-10.06,-164.75,0.08,0.88,-0.44,-0.14,3.0,277.63,-71.19,-158.13,277.63,-71.19,-158.13,-0.44,0.45,-0.67,-0.39
3.0,233.25,-10.44,-164.88,233.25,-10.44,-164.88,0.08,0.88,-0.44,-0.14,3.0,276.13,-69.62,-158.56,276.13,-69.62,-158.56,-0.42,0.45,-0.68,-0.38
3.0,233.0,-10.88,-164.56,233.0,-10.88,-164.56,0.08,0.88,-0.44,-0.15,3.0,275.44,-64.5,-157.0,275.44,-64.5,-157.0,-0.41,0.44,-0.72,-0.36
3.0,232.63,-11.06,-162.63,232.63,-11.06,-162.63,0.09,0.88,-0.44,-0.15,3.0,277.81,-64.0,-160.44,277.81,-64.0,-160.44,-0.4,0.45,-0.71,-0.36
3.0,232.25,-10.63,-161.81,232.25,-10.63,-161.81,0.1,0.88,-0.43,-0.15,3.0,272.5,-59.06,-158.69,272.5,-59.06,-158.69,-0.35,0.44,-0.75,-0.35
3.0,232.06,-10.38,-162.0,232.06,-10.38,-162.0,0.1,0.88,-0.43,-0.15,3.0,270.44,-52.75,-158.06,270.44,-52.75,-158.06,-0.34,0.43,-0.77,-0.32
3.0,231.5,-9.81,-163.56,231.5,-9.81,-163.56,0.09,0.89,-0.43,-0.14,3.0,279.63,-56.0,-164.06,279.63,-56.0,-164.06,-0.37,0.44,-0.76,-0.31
3.0,231.19,-9.63,-163.5,231.19,-9.63,-163.5,0.09,0.89,-0.43,-0.14,3.0,277.44,-54.5,-163.75,277.44,-54.5,-163.75,-0.34,0.44,-0.78,-0.31
3.0,231.06,-9.5,-163.5,231.06,-9.5,-163.5,0.09,0.89,-0.43,-0.14,3.0,269.81,-48.0,-160.0,269.81,-48.0,-160.0,-0.3,0.42,-0.8,-0.3
3.0,231.0,-9.19,-163.19,231.0,-9.19,-163.19,0.1,0.89,-0.42,-0.14,3.0,272.63,-48.69,-161.75,272.63,-48.69,-161.75,-0.32,0.43,-0.79,-0.3
3.0,231.06,-9.19,-163.06,231.06,-9.19,-163.06,0.1,0.89,-0.42,-0.14,3.0,274.19,-49.56,-162.69,274.19,-49.56,-162.69,-0.32,0.43,-0.79,-0.3
3.0,231.0,-9.06,-163.19,231.0,-9.06,-163.19,0.1,0.89,-0.42,-0.13,3.0,270.0,-47.63,-160.81,270.0,-47.63,-160.81,-0.29,0.43,-0.8,-0.3
3.0,230.94,-8.81,-163.06,230.94,-8.81,-163.06,0.1,0.89,-0.42,-0.13,3.0,264.75,-45.44,-159.13,264.75,-45.44,-159.13,-0.28,0.43,-0.8,-0.31
3.0,230.81,-8.63,-163.13,230.81,-8.63,-163.13,0.1,0.89,-0.42,-0.13,3.0,261.06,-43.69,-157.94,261.06,-43.69,-157.94,-0.26,0.43,-0.81,-0.31
3.0,305.19,38.25,-8.88,305.19,38.25,-8.88,0.84,0.21,-0.26,0.43,3.0,263.13,-44.25,-158.63,263.13,-44.25,-158.63,-0.27,0.43,-0.81,-0.3
3.0,305.19,37.81,-9.25,305.19,37.81,-9.25,0.84,0.21,-0.26,0.43,3.0,264.31,-44.63,-159.06,264.31,-44.63,-159.06,-0.28,0.43,-0.81,-0.3
3.0,305.06,37.75,-9.69,305.06,37.75,-9.69,0.84,0.22,-0.26,0.44,3.0,262.13,-43.31,-158.81,262.13,-43.31,-158.81,-0.26,0.43,-0.81,-0.3
0.0,288.81,38.56,-10.69,288.81,38.56,-10.69,0.76,0.26,-0.23,0.55,3.0,258.06,-40.88,-158.0,258.06,-40.88,-158.0,-0.24,0.43,-0.82,-0.3
0.0,288.88,38.88,-10.69,288.88,38.88,-10.69,0.76,0.26,-0.23,0.55,3.0,305.63,-39.69,-157.56,305.63,-39.69,-157.56,-0.23,0.42,-0.82,-0.3
0.0,273.81,38.88,-11.0,273.81,38.88,-11.0,0.69,0.29,-0.19,0.64,3.0,304.44,-40.38,-159.13,304.44,-40.38,-159.13,-0.24,0.43,-0.82,-0.29
0.0,273.69,38.69,-11.81,273.69,38.69,-11.81,0.61,0.31,-0.15,0.72,3.0,305.5,-37.88,-159.25,305.5,-37.88,-159.25,-0.22,0.43,-0.83,-0.28
0.0,260.44,38.19,-12.5,260.44,38.19,-12.5,0.61,0.31,-0.14,0.72,3.0,305.69,-36.25,-158.63,305.69,-36.25,-158.63,-0.21,0.43,-0.83,-0.28
0.0,248.75,37.5,-13.19,248.75,37.5,-13.19,0.53,0.32,-0.1,0.78,3.0,305.63,-35.38,-158.38,305.63,-35.38,-158.38,-0.2,0.43,-0.83,-0.28
0.0,248.88,36.5,-13.19,248.88,36.5,-13.19,0.53,0.31,-0.1,0.78,3.0,305.63,-34.13,-158.13,305.63,-34.13,-158.13,-0.19,0.43,-0.84,-0.28
0.0,238.31,35.69,-13.38,238.31,35.69,-13.38,0.46,0.32,-0.06,0.83,3.0,306.56,-31.87,-157.25,306.56,-31.87,-157.25,-0.17,0.42,-0.84,-0.28
0.0,238.0,34.81,-14.19,238.0,34.81,-14.19,0.39,0.32,-0.02,0.87,3.0,306.81,-30.56,-156.88,306.81,-30.56,-156.88,-0.16,0.42,-0.85,-0.28
0.0,228.0,34.19,-15.25,228.0,34.19,-15.25,0.39,0.32,-0.01,0.87,3.0,306.88,-29.44,-157.19,306.88,-29.44,-157.19,-0.15,0.42,-0.85,-0.27
0.0,219.19,33.94,-16.44,219.19,33.94,-16.44,0.32,0.32,0.02,0.89,3.0,306.75,-28.44,-157.31,306.75,-28.44,-157.31,-0.14,0.43,-0.85,-0.27
0.0,219.31,34.38,-17.87,219.31,34.38,-17.87,0.32,0.33,0.03,0.89,3.0,306.81,-26.37,-156.94,306.81,-26.37,-156.94,-0.12,0.43,-0.85,-0.27
0.0,212.06,35.25,-19.12,212.06,35.25,-19.12,0.26,0.34,0.05,0.9,3.0,306.25,-25.37,-157.63,306.25,-25.37,-157.63,-0.12,0.43,-0.85,-0.26
0.0,212.94,36.31,-19.19,212.94,36.31,-19.19,0.21,0.34,0.06,0.91,3.0,305.94,-24.81,-158.44,305.94,-24.81,-158.44,-0.11,0.44,-0.86,-0.25
0.0,206.56,36.63,-18.62,206.56,36.63,-18.62,0.22,0.34,0.06,0.91,3.0,306.31,-22.62,-160.13,306.31,-22.62,-160.13,-0.1,0.44,-0.86,-0.23
0.0,200.81,35.88,-18.44,200.81,35.88,-18.44,0.17,0.33,0.08,0.93,3.0,306.88,-21.0,-160.94,306.88,-21.0,-160.94,-0.09,0.43,-0.87,-0.22
0.0,200.94,34.88,-19.0,200.94,34.88,-19.0,0.17,0.32,0.09,0.93,3.0,307.75,-18.87,-161.94,307.75,-18.87,-161.94,-0.08,0.43,-0.88,-0.21
0.0,195.31,34.0,-19.5,195.31,34.0,-19.5,0.13,0.31,0.11,0.94,3.0,307.19,-18.06,-162.69,307.19,-18.06,-162.69,-0.07,0.44,-0.88,-0.2
0.0,195.38,33.25,-19.75,195.38,33.25,-19.75,0.08,0.3,0.12,0.94,3.0,307.13,-16.19,-163.25,307.13,-16.19,-163.25,-0.06,0.44,-0.88,-0.18
0.0,190.19,32.81,-20.12,190.19,32.81,-20.12,0.08,0.3,0.13,0.94,3.0,307.69,-13.13,-165.19,307.69,-13.13,-165.19,-0.05,0.43,-0.88,-0.16
0.0,185.38,32.81,-20.56,185.38,32.81,-20.56,0.04,0.29,0.14,0.94,3.0,307.94,-11.88,-166.0,307.94,-11.88,-166.0,-0.04,0.43,-0.89,-0.15
0.0,185.63,33.25,-20.44,185.63,33.25,-20.44,0.05,0.3,0.14,0.94,3.0,308.31,-10.5,-167.06,308.31,-10.5,-167.06,-0.03,0.43,-0.89,-0.14
0.0,181.81,34.19,-20.19,181.81,34.19,-20.19,0.02,0.3,0.15,0.94,3.0,308.38,-9.56,-167.75,308.38,-9.56,-167.75,-0.03,0.43,-0.89,-0.13
0.0,182.19,35.5,-20.44,182.19,35.5,-20.44,-0.01,0.31,0.16,0.94,3.0,308.56,-8.69,-168.44,308.56,-8.69,-168.44,-0.02,0.43,-0.9,-0.12
0.0,178.56,36.69,-20.87,178.56,36.69,-20.87,-0.01,0.32,0.16,0.93,3.0,309.31,-7.94,-168.81,309.31,-7.94,-168.81,-0.02,0.42,-0.9,-0.12
0.0,175.0,37.19,-21.94,175.0,37.19,-21.94,-0.04,0.32,0.18,0.93,3.0,309.44,-7.81,-168.69,309.44,-7.81,-168.69,-0.02,0.43,-0.9,-0.12
0.0,174.94,37.25,-23.19,174.94,37.25,-23.19,-0.04,0.32,0.18,0.93,3.0,308.69,-8.0,-168.56,308.69,-8.0,-168.56,-0.02,0.43,-0.89,-0.12
0.0,171.75,37.13,-23.81,171.75,37.13,-23.81,-0.07,0.31,0.2,0.93,3.0,308.88,-6.94,-168.38,308.88,-6.94,-168.38,-0.01,0.43,-0.9,-0.12
0.0,171.88,37.0,-23.44,171.88,37.0,-23.44,-0.09,0.31,0.2,0.93,3.0,308.38,-6.69,-168.5,308.38,-6.69,-168.5,-0.01,0.43,-0.89,-0.12
0.0,169.25,37.0,-22.56,169.25,37.0,-22.56,-0.09,0.31,0.19,0.93,3.0,307.31,-7.0,-168.25,307.31,-7.0,-168.25,-0.01,0.44,-0.89,-0.12
0.0,166.63,36.94,-21.69,166.63,36.94,-21.69,-0.11,0.3,0.19,0.93,3.0,306.81,-6.56,-168.13,306.81,-6.56,-168.13,-0.01,0.45,-0.89,-0.12
0.0,166.56,36.94,-21.31,166.56,36.94,-21.31,-0.11,0.3,0.19,0.93,3.0,306.06,-6.31,-168.38,306.06,-6.31,-168.38,-0.0,0.45,-0.89,-0.11
0.0,164.38,37.0,-21.44,164.38,37.0,-21.44,-0.13,0.3,0.2,0.92,3.0,305.81,-5.75,-169.13,305.81,-5.75,-169.13,-0.0,0.45,-0.89,-0.11
0.0,164.38,37.19,-21.75,164.38,37.19,-21.75,-0.14,0.3,0.21,0.92,3.0,305.38,-5.63,-169.44,305.38,-5.63,-169.44,-0.0,0.46,-0.88,-0.1
0.0,162.5,37.75,-21.69,162.5,37.75,-21.69,-0.14,0.3,0.2,0.92,3.0,305.25,-5.25,-169.13,305.25,-5.25,-169.13,0.0,0.46,-0.88,-0.1
0.0,160.69,38.13,-21.25,160.69,38.13,-21.25,-0.16,0.3,0.21,0.92,3.0,305.44,-4.56,-169.0,305.44,-4.56,-169.0,0.01,0.45,-0.89,-0.1
0.0,160.69,38.0,-21.06,160.69,38.0,-21.06,-0.16,0.3,0.2,0.92,3.0,305.75,-4.5,-169.31,305.75,-4.5,-169.31,0.01,0.45,-0.89,-0.1
0.0,159.06,37.69,-20.75,159.06,37.69,-20.75,-0.17,0.3,0.21,0.92,3.0,305.81,-4.75,-169.63,305.81,-4.75,-169.63,0.0,0.45,-0.89,-0.1
0.0,159.13,37.69,-19.94,159.13,37.69,-19.94,-0.18,0.29,0.2,0.92,3.0,305.81,-4.75,-169.81,305.81,-4.75,-169.81,0.0,0.45,-0.89,-0.1
0.0,157.56,37.88,-19.0,157.56,37.88,-19.0,-0.18,0.3,0.2,0.92,3.0,306.25,-4.81,-170.63,306.25,-4.81,-170.63,-0.0,0.45,-0.89,-0.09
0.0,156.06,38.13,-19.19,156.06,38.13,-19.19,-0.19,0.29,0.21,0.91,3.0,306.31,-4.81,-171.19,306.31,-4.81,-171.19,-0.0,0.44,-0.89,-0.09
0.0,155.94,38.13,-20.06,155.94,38.13,-20.06,-0.19,0.29,0.21,0.91,3.0,307.31,-4.56,-171.56,307.31,-4.56,-171.56,-0.0,0.44,-0.9,-0.08
0.0,154.63,38.19,-20.37,154.63,38.19,-20.37,-0.2,0.29,0.22,0.91,3.0,309.06,-3.13,-171.75,309.06,-3.13,-171.75,0.01,0.43,-0.9,-0.07
0.0,154.63,38.38,-20.0,154.63,38.38,-20.0,-0.21,0.29,0.22,0.91,3.0,309.31,-2.06,-172.13,309.31,-2.06,-172.13,0.01,0.43,-0.9,-0.07
0.0,153.56,38.44,-19.87,153.56,38.44,-19.87,-0.21,0.29,0.22,0.91,3.0,309.06,-1.63,-172.69,309.06,-1.63,-172.69,0.01,0.43,-0.9,-0.06
0.0,152.56,38.5,-19.87,152.56,38.5,-19.87,-0.22,0.29,0.22,0.9,3.0,309.06,-1.31,-173.06,309.06,-1.31,-173.06,0.02,0.43,-0.9,-0.06
0.0,152.56,38.56,-19.75,152.56,38.56,-19.75,-0.22,0.29,0.22,0.91,3.0,309.13,-1.25,-173.0,309.13,-1.25,-173.0,0.02,0.43,-0.9,-0.06
0.0,151.63,38.63,-19.5,151.63,38.63,-19.5,-0.23,0.29,0.22,0.9,3.0,309.13,-1.31,-172.81,309.13,-1.31,-172.81,0.02,0.43,-0.9,-0.06
0.0,151.63,38.69,-19.12,151.63,38.69,-19.12,-0.23,0.29,0.22,0.9,3.0,309.25,-1.19,-172.5,309.25,-1.19,-172.5,0.02,0.43,-0.9,-0.06
0.0,150.75,38.88,-18.62,150.75,38.88,-18.62,-0.24,0.29,0.21,0.9,3.0,309.44,-0.69,-172.25,309.44,-0.69,-172.25,0.03,0.43,-0.9,-0.06
0.0,150.19,39.0,-18.12,150.19,39.0,-18.12,-0.24,0.29,0.21,0.9,3.0,309.56,0.0,-172.31,309.56,0.0,-172.31,0.03,0.42,-0.9,-0.06
0.0,150.0,39.19,-17.62,150.0,39.19,-17.62,-0.24,0.3,0.21,0.9,3.0,310.06,0.56,-172.75,310.06,0.56,-172.75,0.03,0.42,-0.9,-0.05
0.0,149.06,39.5,-17.19,149.06,39.5,-17.19,-0.25,0.3,0.21,0.9,3.0,310.63,1.12,-173.0,310.63,1.12,-173.0,0.03,0.42,-0.91,-0.05
1.0,148.81,39.94,-16.75,148.81,39.94,-16.75,-0.26,0.3,0.21,0.89,3.0,310.88,1.31,-172.81,310.88,1.31,-172.81,0.04,0.41,-0.91,-0.05
1.0,147.69,40.56,-15.94,147.69,40.56,-15.94,-0.26,0.31,0.2,0.89,3.0,311.38,1.06,-172.56,311.38,1.06,-172.56,0.04,0.41,-0.91,-0.05
1.0,146.75,40.81,-15.56,146.75,40.81,-15.56,-0.27,0.31,0.2,0.89,3.0,311.44,0.56,-172.19,311.44,0.56,-172.19,0.03,0.41,-0.91,-0.06
1.0,146.56,41.0,-14.88,146.56,41.0,-14.88,-0.27,0.31,0.2,0.89,3.0,311.94,0.37,-171.81,311.94,0.37,-171.81,0.03,0.41,-0.91,-0.06
1.0,146.06,40.94,-14.44,146.06,40.94,-14.44,-0.27,0.31,0.2,0.89,3.0,312.19,0.56,-171.94,312.19,0.56,-171.94,0.03,0.4,-0.91,-0.06
2.0,146.06,40.69,-14.0,146.06,40.69,-14.0,-0.27,0.31,0.2,0.89,3.0,312.0,0.81,-172.56,312.0,0.81,-172.56,0.03,0.41,-0.91,-0.06
2.0,145.75,40.69,-13.5,145.75,40.69,-13.5,-0.27,0.31,0.19,0.89,3.0,312.19,1.63,-173.31,312.19,1.63,-173.31,0.04,0.4,-0.91,-0.05
2.0,145.44,40.44,-13.38,145.44,40.44,-13.38,-0.28,0.3,0.19,0.89,3.0,312.0,2.06,-173.63,312.0,2.06,-173.63,0.04,0.41,-0.91,-0.04
2.0,145.44,40.25,-13.56,145.44,40.25,-13.56,-0.28,0.3,0.2,0.89,3.0,312.31,2.88,-173.81,312.31,2.88,-173.81,0.05,0.4,-0.91,-0.04
2.0,145.25,40.06,-13.75,145.25,40.06,-13.75,-0.28,0.3,0.2,0.89,3.0,312.44,3.88,-173.69,312.44,3.88,-173.69,0.05,0.4,-0.91,-0.04
2.0,145.19,40.56,-13.13,145.19,40.56,-13.13,-0.28,0.31,0.19,0.89,3.0,312.38,4.0,-173.81,312.38,4.0,-173.81,0.05,0.4,-0.91,-0.03
2.0,144.75,41.31,-12.88,144.75,41.31,-12.88,-0.28,0.31,0.19,0.89,3.0,312.25,4.13,-174.38,312.25,4.13,-174.38,0.05,0.4,-0.91,-0.03
2.0,144.0,42.06,-12.69,144.0,42.06,-12.69,-0.29,0.32,0.19,0.88,3.0,311.94,4.63,-175.38,311.94,4.63,-175.38,0.05,0.41,-0.91,-0.02
2.0,143.69,42.75,-11.94,143.69,42.75,-11.94,-0.29,0.32,0.19,0.88,3.0,311.69,4.81,-175.88,311.69,4.81,-175.88,0.05,0.41,-0.91,-0.01
2.0,143.44,42.88,-10.19,143.44,42.88,-10.19,-0.29,0.33,0.18,0.88,3.0,311.5,4.88,-176.0,311.5,4.88,-176.0,0.05,0.41,-0.91,-0.01
2.0,143.69,42.44,-7.81,143.69,42.44,-7.81,-0.29,0.33,0.16,0.89,3.0,311.31,4.69,-175.75,311.31,4.69,-175.75,0.05,0.41,-0.91,-0.02
2.0,144.13,41.06,-4.69,144.13,41.06,-4.69,-0.29,0.32,0.13,0.89,3.0,311.25,4.63,-175.25,311.25,4.63,-175.25,0.05,0.41,-0.91,-0.02
2.0,144.5,39.06,-1.56,144.5,39.06,-1.56,-0.29,0.32,0.11,0.9,3.0,311.25,4.69,-174.56,311.25,4.69,-174.56,0.06,0.41,-0.91,-0.03
2.0,144.69,36.94,0.06,144.69,36.94,0.06,-0.29,0.3,0.09,0.91,3.0,311.38,4.88,-173.88,311.38,4.88,-173.88,0.06,0.41,-0.91,-0.03
3.0,144.75,35.0,0.75,144.75,35.0,0.75,-0.29,0.28,0.08,0.91,3.0,311.31,5.06,-173.5,311.31,5.06,-173.5,0.07,0.41,-0.91,-0.03
3.0,144.75,33.75,0.88,144.75,33.75,0.88,-0.29,0.28,0.08,0.91,3.0,311.44,5.69,-173.19,311.44,5.69,-173.19,0.07,0.41,-0.91,-0.03
3.0,144.5,33.25,0.56,144.5,33.25,0.56,-0.29,0.27,0.08,0.91,3.0,311.56,6.69,-172.75,311.56,6.69,-172.75,0.08,0.41,-0.91,-0.03
3.0,144.06,33.19,0.44,144.06,33.19,0.44,-0.3,0.27,0.08,0.91,3.0,311.88,7.5,-171.94,311.88,7.5,-171.94,0.09,0.41,-0.91,-0.04
3.0,144.0,33.31,1.12,144.0,33.31,1.12,-0.3,0.28,0.08,0.91,3.0,312.0,8.13,-171.5,312.0,8.13,-171.5,0.1,0.4,-0.91,-0.04
3.0,143.81,33.56,1.75,143.81,33.56,1.75,-0.3,0.28,0.07,0.91,3.0,311.94,8.44,-171.31,311.94,8.44,-171.31,0.1,0.4,-0.91,-0.04
3.0,143.94,33.81,3.06,143.94,33.81,3.06,-0.3,0.29,0.07,0.91,3.0,312.0,9.0,-171.19,312.0,9.0,-171.19,0.1,0.4,-0.91,-0.04
3.0,144.06,33.88,3.94,144.06,33.88,3.94,-0.29,0.29,0.06,0.91,3.0,311.88,9.56,-171.25,311.88,9.56,-171.25,0.11,0.4,-0.91,-0.03
3.0,144.06,33.69,3.94,144.06,33.69,3.94,-0.3,0.28,0.06,0.91,3.0,311.94,10.19,-171.06,311.94,10.19,-171.06,0.12,0.4,-0.91,-0.03
3.0,143.88,33.44,3.88,143.88,33.44,3.88,-0.3,0.28,0.06,0.91,3.0,312.06,11.0,-170.75,312.06,11.0,-170.75,0.12,0.4,-0.91,-0.03
3.0,143.75,33.38,3.69,143.75,33.38,3.69,-0.3,0.28,0.06,0.91,3.0,312.13,11.5,-170.5,312.13,11.5,-170.5,0.13,0.4,-0.91,-0.03
3.0,143.75,33.31,3.5,143.75,33.31,3.5,-0.3,0.28,0.06,0.91,3.0,312.19,11.75,-170.5,312.19,11.75,-170.5,0.13,0.4,-0.91,-0.03
3.0,143.69,33.31,3.44,143.69,33.31,3.44,-0.3,0.28,0.06,0.91,3.0,312.13,11.81,-170.5,312.13,11.81,-170.5,0.13,0.4,-0.91,-0.03
3.0,143.63,33.44,3.5,143.63,33.44,3.5,-0.3,0.28,0.06,0.91,3.0,312.19,12.06,-170.38,312.19,12.06,-170.38,0.13,0.4,-0.91,-0.03
3.0,143.63,33.56,3.81,143.63,33.56,3.81,-0.3,0.28,0.06,0.91,3.0,312.13,12.13,-170.44,312.13,12.13,-170.44,0.13,0.4,-0.91,-0.03
3.0,143.63,33.75,4.13,143.63,33.75,4.13,-0.3,0.29,0.06,0.91,3.0,312.19,12.13,-170.44,312.19,12.13,-170.44,0.13,0.4,-0.91,-0.03
3.0,143.56,33.94,4.13,143.56,33.94,4.13,-0.3,0.29,0.06,0.91,3.0,312.19,12.13,-170.5,312.19,12.13,-170.5,0.13,0.4,-0.91,-0.03
3.0,143.44,34.0,4.13,143.44,34.0,4.13,-0.3,0.29,0.06,0.91,3.0,312.13,12.0,-170.63,312.13,12.0,-170.63,0.13,0.4,-0.91,-0.03
3.0,143.44,34.06,4.19,143.44,34.06,4.19,-0.3,0.29,0.06,0.91,3.0,312.13,11.94,-170.69,312.13,11.94,-170.69,0.13,0.4,-0.91,-0.03
3.0,143.44,34.0,4.19,143.44,34.0,4.19,-0.3,0.29,0.06,0.91,3.0,312.0,11.75,-170.94,312.0,11.75,-170.94,0.12,0.4,-0.91,-0.03
3.0,143.5,33.94,4.19,143.5,33.94,4.19,-0.3,0.29,0.06,0.91,3.0,311.81,11.56,-171.25,311.81,11.56,-171.25,0.12,0.41,-0.91,-0.03
3.0,143.38,33.81,4.25,143.38,33.81,4.25,-0.3,0.29,0.06,0.91,3.0,311.63,11.31,-171.69,311.63,11.31,-171.69,0.12,0.41,-0.91,-0.02
3.0,143.38,33.75,4.44,143.38,33.75,4.44,-0.3,0.29,0.06,0.91,3.0,311.5,11.31,-172.13,311.5,11.31,-172.13,0.12,0.41,-0.91,-0.02
3.0,143.38,33.75,4.75,143.38,33.75,4.75,-0.3,0.29,0.06,0.91,3.0,311.44,11.44,-172.44,311.44,11.44,-172.44,0.12,0.41,-0.91,-0.02
3.0,143.38,33.63,5.0,143.38,33.63,5.0,-0.3,0.29,0.05,0.91,3.0,311.44,11.38,-172.44,311.44,11.38,-172.44,0.12,0.41,-0.91,-0.02
3.0,143.31,33.44,4.88,143.31,33.44,4.88,-0.3,0.28,0.06,0.91,3.0,311.44,10.94,-172.31,311.44,10.94,-172.31,0.11,0.41,-0.91,-0.02
3.0,143.38,33.13,4.69,143.38,33.13,4.69,-0.3,0.28,0.06,0.91,3.0,311.44,10.63,-172.0,311.44,10.63,-172.0,0.11,0.41,-0.91,-0.02
3.0,143.44,32.88,4.63,143.44,32.88,4.63,-0.3,0.28,0.06,0.91,3.0,311.56,11.06,-171.75,311.56,11.06,-171.75,0.12,0.41,-0.91,-0.02
3.0,143.5,32.81,4.56,143.5,32.81,4.56,-0.3,0.28,0.06,0.91,3.0,311.69,11.63,-171.56,311.69,11.63,-171.56,0.12,0.41,-0.91,-0.02
3.0,143.44,32.81,4.44,143.44,32.81,4.44,-0.3,0.28,0.06,0.91,3.0,311.75,12.13,-171.44,311.75,12.13,-171.44,0.13,0.4,-0.91,-0.02
3.0,143.38,32.75,4.31,143.38,32.75,4.31,-0.3,0.28,0.06,0.91,3.0,311.81,12.56,-171.25,311.81,12.56,-171.25,0.13,0.4,-0.9,-0.02
3.0,143.38,32.69,4.31,143.38,32.69,4.31,-0.3,0.28,0.06,0.91,3.0,311.88,12.63,-171.19,311.88,12.63,-171.19,0.13,0.4,-0.91,-0.02
3.0,143.5,32.56,4.56,143.5,32.56,4.56,-0.3,0.28,0.05,0.91,3.0,311.88,12.44,-171.13,311.88,12.44,-171.13,0.13,0.4,-0.91,-0.02
3.0,143.56,32.5,4.5,143.56,32.5,4.5,-0.3,0.28,0.05,0.91,3.0,311.81,12.13,-171.19,311.81,12.13,-171.19,0.13,0.4,-0.91,-0.03
3.0,143.38,32.5,4.31,143.38,32.5,4.31,-0.3,0.28,0.06,0.91,3.0,311.88,12.13,-171.13,311.88,12.13,-171.13,0.13,0.4,-0.91,-0.03
3.0,143.38,32.69,4.38,143.38,32.69,4.38,-0.3,0.28,0.06,0.91,3.0,311.94,12.38,-171.13,311.94,12.38,-171.13,0.13,0.4,-0.91,-0.02
3.0,143.38,32.75,4.5,143.38,32.75,4.5,-0.3,0.28,0.06,0.91,3.0,311.94,12.5,-171.13,311.94,12.5,-171.13,0.13,0.4,-0.91,-0.02
3.0,143.38,32.75,4.56,143.38,32.75,4.56,-0.3,0.28,0.05,0.91,3.0,311.94,12.69,-171.19,311.94,12.69,-171.19,0.13,0.4,-0.91,-0.02
3.0,143.38,32.69,4.63,143.38,32.69,4.63,-0.3,0.28,0.05,0.91,3.0,312.0,12.94,-171.13,312.0,12.94,-171.13,0.14,0.4,-0.91,-0.02
3.0,143.31,32.63,4.5,143.31,32.63,4.5,-0.3,0.28,0.06,0.91,3.0,312.0,13.25,-171.13,312.0,13.25,-171.13,0.14,0.4,-0.9,-0.02
3.0,143.31,32.63,4.44,143.31,32.63,4.44,-0.3,0.28,0.06,0.91,3.0,312.13,13.56,-171.0,312.13,13.56,-171.0,0.14,0.4,-0.9,-0.02
3.0,143.31,32.69,4.38,143.31,32.69,4.38,-0.3,0.28,0.06,0.91,3.0,312.13,13.81,-170.88,312.13,13.81,-170.88,0.14,0.4,-0.9,-0.02
3.0,143.25,32.69,4.31,143.25,32.69,4.31,-0.3,0.28,0.06,0.91,3.0,312.13,13.88,-170.81,312.13,13.88,-170.81,0.14,0.4,-0.9,-0.02
3.0,143.25,32.63,4.13,143.25,32.63,4.13,-0.3,0.28,0.06,0.91,3.0,312.13,14.06,-170.75,312.13,14.06,-170.75,0.14,0.4,-0.9,-0.02
3.0,143.19,32.69,4.06,143.19,32.69,4.06,-0.3,0.28,0.06,0.91,3.0,312.13,14.19,-170.75,312.13,14.19,-170.75,0.15,0.4,-0.9,-0.02
3.0,143.25,32.75,4.13,143.25,32.75,4.13,-0.3,0.28,0.06,0.91,3.0,312.19,14.25,-170.63,312.19,14.25,-170.63,0.15,0.4,-0.9,-0.02
3.0,143.19,32.81,4.06,143.19,32.81,4.06,-0.3,0.28,0.06,0.91,3.0,312.19,14.31,-170.5,312.19,14.31,-170.5,0.15,0.4,-0.9,-0.02
3.0,143.19,32.81,3.94,143.19,32.81,3.94,-0.3,0.28,0.06,0.91,3.0,312.25,14.44,-170.44,312.25,14.44,-170.44,0.15,0.4,-0.9,-0.02
3.0,143.19,32.81,3.81,143.19,32.81,3.81,-0.3,0.28,0.06,0.91,3.0,312.25,14.44,-170.5,312.25,14.44,-170.5,0.15,0.4,-0.9,-0.02
3.0,143.13,32.81,3.75,143.13,32.81,3.75,-0.3,0.28,0.06,0.91,3.0,312.25,14.31,-170.56,312.25,14.31,-170.56,0.15,0.4,-0.9,-0.02
3.0,143.13,32.81,3.75,143.13,32.81,3.75,-0.3,0.28,0.06,0.91,3.0,312.25,14.25,-170.56,312.25,14.25,-170.56,0.15,0.4,-0.9,-0.02
3.0,143.19,32.88,3.88,143.19,32.88,3.88,-0.3,0.28,0.06,0.91,3.0,312.19,14.19,-170.63,312.19,14.19,-170.63,0.15,0.4,-0.9,-0.02
3.0,143.19,32.88,3.75,143.19,32.88,3.75,-0.3,0.28,0.06,0.91,3.0,312.19,14.25,-170.63,312.19,14.25,-170.63,0.15,0.4,-0.9,-0.02
3.0,143.13,32.88,3.69,143.13,32.88,3.69,-0.3,0.28,0.06,0.91,3.0,312.25,14.31,-170.56,312.25,14.31,-170.56,0.15,0.4,-0.9,-0.02
3.0,143.13,32.94,3.63,143.13,32.94,3.63,-0.3,0.28,0.06,0.91,3.0,312.38,14.5,-170.38,312.38,14.5,-170.38,0.15,0.4,-0.9,-0.02
3.0,143.13,32.88,3.44,143.13,32.88,3.44,-0.3,0.28,0.06,0.91,3.0,312.56,14.63,-170.0,312.56,14.63,-170.0,0.15,0.4,-0.9,-0.03
3.0,143.13,32.88,3.31,143.13,32.88,3.31,-0.3,0.28,0.07,0.91,3.0,312.56,14.5,-169.81,312.56,14.5,-169.81,0.15,0.4,-0.91,-0.03
3.0,143.06,32.81,3.19,143.06,32.81,3.19,-0.3,0.28,0.07,0.91,3.0,312.81,14.19,-169.06,312.81,14.19,-169.06,0.15,0.39,-0.91,-0.04
3.0,143.25,33.0,3.5,143.25,33.0,3.5,-0.3,0.28,0.06,0.91,3.0,312.88,14.31,-168.69,312.88,14.31,-168.69,0.15,0.39,-0.91,-0.04
3.0,143.13,33.44,3.19,143.13,33.44,3.19,-0.3,0.28,0.07,0.91,3.0,312.88,14.44,-168.69,312.88,14.44,-168.69,0.15,0.39,-0.9,-0.04
3.0,142.88,33.75,2.69,142.88,33.75,2.69,-0.3,0.28,0.07,0.91,3.0,312.81,14.63,-168.94,312.81,14.63,-168.94,0.15,0.4,-0.9,-0.03
3.0,142.81,34.0,2.88,142.81,34.0,2.88,-0.3,0.29,0.07,0.91,3.0,312.75,14.81,-169.19,312.75,14.81,-169.19,0.16,0.4,-0.9,-0.03
3.0,142.81,34.13,3.19,142.81,34.13,3.19,-0.3,0.29,0.07,0.91,3.0,312.69,14.81,-169.38,312.69,14.81,-169.38,0.15,0.4,-0.9,-0.03
3.0,142.88,34.06,3.31,142.88,34.06,3.31,-0.3,0.29,0.07,0.91,3.0,312.63,14.56,-169.38,312.63,14.56,-169.38,0.15,0.4,-0.9,-0.03
3.0,142.94,34.0,3.5,142.94,34.0,3.5,-0.3,0.29,0.07,0.91,3.0,312.63,14.31,-169.19,312.63,14.31,-169.19,0.15,0.4,-0.9,-0.03
3.0,142.94,33.94,3.63,142.94,33.94,3.63,-0.3,0.29,0.07,0.91,3.0,312.69,14.31,-168.81,312.69,14.31,-168.81,0.15,0.4,-0.9,-0.04
3.0,142.94,33.81,3.63,142.94,33.81,3.63,-0.3,0.28,0.07,0.91,3.0,312.75,14.56,-168.69,312.75,14.56,-168.69,0.16,0.4,-0.9,-0.04
3.0,142.94,33.75,3.56,142.94,33.75,3.56,-0.3,0.28,0.07,0.91,3.0,312.81,14.88,-168.56,312.81,14.88,-168.56,0.16,0.39,-0.9,-0.04
3.0,142.94,33.69,3.63,142.94,33.69,3.63,-0.3,0.28,0.07,0.91,3.0,312.81,15.31,-168.5,312.81,15.31,-168.5,0.16,0.39,-0.9,-0.04
3.0,142.94,33.69,3.63,142.94,33.69,3.63,-0.3,0.28,0.07,0.91,3.0,312.88,15.56,-168.44,312.88,15.56,-168.44,0.16,0.39,-0.9,-0.04
3.0,142.94,33.63,3.5,142.94,33.63,3.5,-0.3,0.28,0.07,0.91,3.0,312.94,15.81,-168.31,312.94,15.81,-168.31,0.17,0.39,-0.9,-0.04
3.0,142.94,33.69,3.44,142.94,33.69,3.44,-0.3,0.28,0.07,0.91,3.0,312.94,15.81,-168.31,312.94,15.81,-168.31,0.17,0.39,-0.9,-0.04
3.0,142.94,33.88,3.56,142.94,33.88,3.56,-0.3,0.29,0.07,0.91,3.0,312.94,15.81,-168.31,312.94,15.81,-168.31,0.17,0.39,-0.9,-0.04
3.0,142.94,33.94,3.5,142.94,33.94,3.5,-0.3,0.29,0.07,0.91,3.0,312.94,15.75,-168.38,312.94,15.75,-168.38,0.17,0.39,-0.9,-0.04
3.0,142.94,33.81,3.44,142.94,33.81,3.44,-0.3,0.28,0.07,0.91,3.0,312.94,15.56,-168.44,312.94,15.56,-168.44,0.16,0.39,-0.9,-0.04
3.0,143.0,33.75,3.56,143.0,33.75,3.56,-0.3,0.28,0.07,0.91,3.0,312.88,15.31,-168.44,312.88,15.31,-168.44,0.16,0.39,-0.9,-0.04
3.0,143.0,33.69,3.5,143.0,33.69,3.5,-0.3,0.28,0.07,0.91,3.0,312.88,15.13,-168.44,312.88,15.13,-168.44,0.16,0.39,-0.9,-0.04
3.0,143.0,33.75,3.44,143.0,33.75,3.44,-0.3,0.28,0.07,0.91,3.0,312.88,15.13,-168.44,312.88,15.13,-168.44,0.16,0.39,-0.9,-0.04
3.0,142.94,33.75,3.38,142.94,33.75,3.38,-0.3,0.28,0.07,0.91,3.0,312.88,15.13,-168.5,312.88,15.13,-168.5,0.16,0.39,-0.9,-0.04
3.0,142.94,33.75,3.31,142.94,33.75,3.31,-0.3,0.28,0.07,0.91,3.0,312.88,15.06,-168.44,312.88,15.06,-168.44,0.16,0.39,-0.9,-0.04
3.0,142.94,33.75,3.44,142.94,33.75,3.44,-0.3,0.28,0.07,0.91,3.0,312.88,15.0,-168.38,312.88,15.0,-168.38,0.16,0.39,-0.9,-0.04
3.0,142.94,33.88,3.44,142.94,33.88,3.44,-0.3,0.28,0.07,0.91,3.0,312.94,15.0,-168.13,312.94,15.0,-168.13,0.16,0.39,-0.9,-0.04
3.0,142.94,33.88,3.44,142.94,33.88,3.44,-0.3,0.28,0.07,0.91,3.0,313.0,15.0,-167.94,313.0,15.0,-167.94,0.16,0.39,-0.9,-0.04
3.0,142.94,33.75,3.31,142.94,33.75,3.31,-0.3,0.28,0.07,0.91,3.0,313.0,15.0,-167.81,313.0,15.0,-167.81,0.16,0.39,-0.9,-0.04
3.0,142.94,33.63,3.25,142.94,33.63,3.25,-0.3,0.28,0.07,0.91,3.0,313.06,15.06,-167.81,313.06,15.06,-167.81,0.16,0.39,-0.9,-0.04
3.0,142.94,33.56,3.19,142.94,33.56,3.19,-0.3,0.28,0.07,0.91,3.0,313.06,15.25,-167.81,313.06,15.25,-167.81,0.16,0.39,-0.9,-0.04
3.0,142.94,33.44,3.06,142.94,33.44,3.06,-0.3,0.28,0.07,0.91,3.0,313.06,15.44,-167.81,313.06,15.44,-167.81,0.17,0.39,-0.9,-0.04
3.0,142.88,33.38,2.94,142.88,33.38,2.94,-0.3,0.28,0.07,0.91,3.0,313.13,15.63,-167.81,313.13,15.63,-167.81,0.17,0.39,-0.9,-0.04
3.0,142.88,33.31,2.81,142.88,33.31,2.81,-0.3,0.28,0.07,0.91,3.0,313.13,15.69,-167.75,313.13,15.69,-167.75,0.17,0.39,-0.9,-0.04
3.0,142.88,33.31,2.94,142.88,33.31,2.94,-0.3,0.28,0.07,0.91,3.0,313.13,15.63,-167.69,313.13,15.63,-167.69,0.17,0.39,-0.9,-0.04
3.0,142.88,33.31,2.88,142.88,33.31,2.88,-0.3,0.28,0.07,0.91,3.0,313.13,15.5,-167.63,313.13,15.5,-167.63,0.17,0.39,-0.9,-0.04
3.0,142.88,33.38,2.81,142.88,33.38,2.81,-0.3,0.28,0.07,0.91,3.0,313.13,15.5,-167.56,313.13,15.5,-167.56,0.17,0.39,-0.9,-0.04
3.0,142.88,33.5,2.75,142.88,33.5,2.75,-0.3,0.28,0.07,0.91,3.0,313.13,15.5,-167.56,313.13,15.5,-167.56,0.17,0.39,-0.9,-0.04
3.0,142.81,33.56,2.63,142.81,33.56,2.63,-0.3,0.28,0.07,0.91,3.0,313.19,15.56,-167.56,313.19,15.56,-167.56,0.17,0.39,-0.9,-0.04
3.0,142.81,33.69,2.69,142.81,33.69,2.69,-0.3,0.28,0.07,0.91,3.0,313.19,15.63,-167.56,313.19,15.63,-167.56,0.17,0.39,-0.9,-0.04
3.0,142.81,33.81,2.88,142.81,33.81,2.88,-0.3,0.28,0.07,0.91,3.0,313.25,15.63,-167.44,313.25,15.63,-167.44,0.17,0.39,-0.9,-0.04
3.0,142.81,33.81,2.94,142.81,33.81,2.94,-0.3,0.28,0.07,0.91,3.0,313.25,15.44,-167.31,313.25,15.44,-167.31,0.17,0.39,-0.9,-0.04
3.0,142.81,33.69,2.94,142.81,33.69,2.94,-0.3,0.28,0.07,0.91,3.0,313.25,15.19,-167.38,313.25,15.19,-167.38,0.16,0.39,-0.9,-0.05
3.0,142.88,33.63,2.94,142.88,33.63,2.94,-0.3,0.28,0.07,0.91,3.0,313.19,15.0,-167.38,313.19,15.0,-167.38,0.16,0.39,-0.9,-0.05
3.0,142.88,33.44,2.81,142.88,33.44,2.81,-0.3,0.28,0.07,0.91,3.0,313.19,14.88,-167.38,313.19,14.88,-167.38,0.16,0.39,-0.9,-0.05
3.0,142.88,33.44,2.81,142.88,33.44,2.81,-0.3,0.28,0.07,0.91,3.0,313.19,14.81,-167.44,313.19,14.81,-167.44,0.16,0.39,-0.9,-0.05
3.0,142.88,33.44,2.81,142.88,33.44,2.81,-0.3,0.28,0.07,0.91,3.0,313.19,14.88,-167.44,313.19,14.88,-167.44,0.16,0.39,-0.9,-0.05
3.0,142.81,33.38,2.63,142.81,33.38,2.63,-0.3,0.28,0.07,0.91,3.0,313.19,14.88,-167.44,313.19,14.88,-167.44,0.16,0.39,-0.9,-0.05
3.0,142.81,33.44,2.56,142.81,33.44,2.56,-0.31,0.28,0.07,0.91,3.0,313.19,14.88,-167.44,313.19,14.88,-167.44,0.16,0.39,-0.9,-0.05
3.0,142.81,33.44,2.56,142.81,33.44,2.56,-0.3,0.28,0.07,0.91,3.0,313.25,14.88,-167.44,313.25,14.88,-167.44,0.16,0.39,-0.9,-0.05
3.0,142.81,33.38,2.44,142.81,33.38,2.44,-0.31,0.28,0.07,0.91,3.0,313.25,14.88,-167.38,313.25,14.88,-167.38,0.16,0.39,-0.9,-0.05
3.0,142.81,33.44,2.38,142.81,33.44,2.38,-0.31,0.28,0.07,0.91,3.0,313.25,14.88,-167.31,313.25,14.88,-167.31,0.16,0.39,-0.9,-0.05
3.0,142.75,33.44,2.31,142.75,33.44,2.31,-0.31,0.28,0.08,0.91,3.0,313.31,14.94,-167.19,313.31,14.94,-167.19,0.16,0.39,-0.9,-0.05
3.0,142.75,33.44,2.31,142.75,33.44,2.31,-0.31,0.28,0.08,0.91,3.0,313.31,15.06,-167.13,313.31,15.06,-167.13,0.16,0.39,-0.9,-0.05
3.0,142.75,33.56,2.38,142.75,33.56,2.38,-0.31,0.28,0.07,0.91,3.0,313.31,15.13,-167.13,313.31,15.13,-167.13,0.16,0.39,-0.9,-0.05
3.0,142.75,33.56,2.31,142.75,33.56,2.31,-0.31,0.28,0.08,0.91,3.0,313.31,15.13,-167.19,313.31,15.13,-167.19,0.16,0.39,-0.9,-0.05
3.0,142.75,33.5,2.13,142.75,33.5,2.13,-0.31,0.28,0.08,0.91,3.0,313.25,15.13,-167.25,313.25,15.13,-167.25,0.16,0.39,-0.9,-0.05
3.0,142.75,33.56,2.19,142.75,33.56,2.19,-0.31,0.28,0.08,0.91,3.0,313.25,15.19,-167.25,313.25,15.19,-167.25,0.17,0.39,-0.9,-0.05
3.0,142.75,33.63,2.19,142.75,33.63,2.19,-0.31,0.28,0.08,0.91,3.0,313.25,15.31,-167.19,313.25,15.31,-167.19,0.17,0.39,-0.9,-0.05
3.0,142.69,33.69,2.13,142.69,33.69,2.13,-0.31,0.28,0.08,0.91,3.0,313.31,15.44,-167.13,313.31,15.44,-167.13,0.17,0.39,-0.9,-0.05
3.0,142.69,33.69,2.06,142.69,33.69,2.06,-0.31,0.28,0.08,0.91,3.0,313.31,15.56,-167.13,313.31,15.56,-167.13,0.17,0.39,-0.9,-0.05
3.0,142.75,33.63,2.13,142.75,33.63,2.13,-0.31,0.28,0.08,0.91,3.0,313.31,15.56,-167.06,313.31,15.56,-167.06,0.17,0.39,-0.9,-0.05
3.0,142.75,33.63,2.13,142.75,33.63,2.13,-0.31,0.28,0.08,0.91,3.0,313.31,15.56,-167.0,313.31,15.56,-167.0,0.17,0.39,-0.9,-0.05
3.0,142.75,33.63,2.06,142.75,33.63,2.06,-0.31,0.28,0.08,0.91,3.0,313.31,15.5,-167.06,313.31,15.5,-167.06,0.17,0.39,-0.9,-0.05
3.0,142.69,33.63,2.06,142.69,33.63,2.06,-0.31,0.28,0.08,0.91,3.0,313.31,15.56,-167.06,313.31,15.56,-167.06,0.17,0.39,-0.9,-0.05
3.0,142.69,33.63,2.0,142.69,33.63,2.0,-0.31,0.28,0.08,0.91,3.0,313.31,15.63,-167.06,313.31,15.63,-167.06,0.17,0.39,-0.9,-0.05
3.0,142.69,33.69,1.94,142.69,33.69,1.94,-0.31,0.28,0.08,0.91,3.0,313.31,15.63,-167.0,313.31,15.63,-167.0,0.17,0.39,-0.9,-0.05
3.0,142.69,33.69,1.88,142.69,33.69,1.88,-0.31,0.28,0.08,0.91,3.0,313.31,15.69,-166.94,313.31,15.69,-166.94,0.17,0.39,-0.9,-0.05
3.0,142.69,33.69,1.88,142.69,33.69,1.88,-0.31,0.28,0.08,0.91,3.0,313.38,15.69,-166.81,313.38,15.69,-166.81,0.17,0.39,-0.9,-0.05
3.0,142.69,33.75,1.88,142.69,33.75,1.88,-0.31,0.28,0.08,0.91,3.0,313.38,15.69,-166.69,313.38,15.69,-166.69,0.17,0.39,-0.9,-0.05
3.0,142.63,33.75,1.88,142.63,33.75,1.88,-0.31,0.28,0.08,0.91,3.0,313.38,15.63,-166.56,313.38,15.63,-166.56,0.17,0.39,-0.9,-0.05
3.0,142.63,33.75,1.81,142.63,33.75,1.81,-0.31,0.28,0.08,0.91,3.0,313.38,15.56,-166.63,313.38,15.56,-166.63,0.17,0.39,-0.9,-0.05
3.0,142.63,33.75,1.75,142.63,33.75,1.75,-0.31,0.28,0.08,0.91,3.0,313.38,15.56,-166.75,313.38,15.56,-166.75,0.17,0.39,-0.9,-0.05
3.0,142.63,33.75,1.69,142.63,33.75,1.69,-0.31,0.28,0.08,0.91,3.0,313.31,15.56,-167.0,313.31,15.56,-167.0,0.17,0.39,-0.9,-0.05
3.0,142.63,33.75,1.63,142.63,33.75,1.63,-0.31,0.28,0.08,0.91,3.0,313.25,15.63,-167.06,313.25,15.63,-167.06,0.17,0.39,-0.9,-0.05
3.0,142.63,33.75,1.56,142.63,33.75,1.56,-0.31,0.28,0.08,0.91,3.0,313.25,15.69,-167.06,313.25,15.69,-167.06,0.17,0.39,-0.9,-0.05
3.0,142.63,33.81,1.5,142.63,33.81,1.5,-0.31,0.28,0.08,0.91,3.0,313.31,15.69,-166.94,313.31,15.69,-166.94,0.17,0.39,-0.9,-0.05
3.0,142.63,33.81,1.44,142.63,33.81,1.44,-0.31,0.28,0.08,0.91,3.0,313.38,15.75,-166.63,313.38,15.75,-166.63,0.17,0.39,-0.9,-0.05
3.0,142.63,33.81,1.5,142.63,33.81,1.5,-0.31,0.28,0.08,0.91,3.0,313.44,15.81,-166.44,313.44,15.81,-166.44,0.17,0.39,-0.9,-0.05
3.0,142.5,33.94,1.69,142.5,33.94,1.69,-0.31,0.28,0.08,0.91,3.0,313.5,15.75,-166.38,313.5,15.75,-166.38,0.17,0.39,-0.9,-0.05
3.0,142.44,34.0,1.63,142.44,34.0,1.63,-0.31,0.28,0.08,0.91,3.0,313.5,15.63,-166.5,313.5,15.63,-166.5,0.17,0.39,-0.9,-0.05
3.0,142.5,33.88,1.63,142.5,33.88,1.63,-0.31,0.28,0.08,0.91,3.0,313.5,15.63,-166.63,313.5,15.63,-166.63,0.17,0.39,-0.9,-0.05
3.0,142.5,33.94,1.81,142.5,33.94,1.81,-0.31,0.28,0.08,0.91,3.0,313.38,15.5,-166.88,313.38,15.5,-166.88,0.17,0.39,-0.9,-0.05
3.0,142.5,34.06,2.0,142.5,34.06,2.0,-0.31,0.28,0.08,0.91,3.0,313.19,14.69,-167.06,313.19,14.69,-167.06,0.16,0.39,-0.9,-0.05
3.0,142.5,34.13,1.88,142.5,34.13,1.88,-0.31,0.28,0.08,0.91,3.0,313.06,14.25,-167.25,313.06,14.25,-167.25,0.16,0.39,-0.9,-0.05
3.0,142.5,34.13,1.81,142.5,34.13,1.81,-0.31,0.28,0.08,0.91,3.0,313.0,14.19,-167.38,313.0,14.19,-167.38,0.16,0.39,-0.9,-0.05
3.0,142.5,34.06,1.81,142.5,34.06,1.81,-0.31,0.28,0.08,0.91,3.0,313.0,14.5,-167.44,313.0,14.5,-167.44,0.16,0.39,-0.9,-0.05
3.0,142.5,34.0,1.69,142.5,34.0,1.69,-0.31,0.28,0.08,0.91,3.0,313.0,14.5,-167.31,313.0,14.5,-167.31,0.16,0.39,-0.9,-0.05
3.0,142.5,33.94,1.63,142.5,33.94,1.63,-0.31,0.28,0.08,0.91,3.0,313.06,14.5,-167.06,313.06,14.5,-167.06,0.16,0.39,-0.9,-0.05
3.0,142.56,33.88,1.5,142.56,33.88,1.5,-0.31,0.28,0.08,0.91,3.0,313.19,14.75,-166.88,313.19,14.75,-166.88,0.16,0.39,-0.9,-0.05
3.0,142.56,33.88,1.37,142.56,33.88,1.37,-0.31,0.28,0.08,0.91,3.0,313.25,15.0,-166.75,313.25,15.0,-166.75,0.17,0.39,-0.9,-0.05
3.0,142.56,33.94,1.31,142.56,33.94,1.31,-0.31,0.28,0.08,0.91,3.0,313.31,15.31,-166.75,313.31,15.31,-166.75,0.17,0.39,-0.9,-0.05
3.0,142.56,34.0,1.44,142.56,34.0,1.44,-0.31,0.28,0.08,0.91,3.0,313.31,15.5,-166.75,313.31,15.5,-166.75,0.17,0.39,-0.9,-0.05
3.0,142.56,33.94,1.44,142.56,33.94,1.44,-0.31,0.28,0.08,0.91,3.0,313.31,15.75,-166.69,313.31,15.75,-166.69,0.17,0.39,-0.9,-0.05
3.0,142.56,33.94,1.37,142.56,33.94,1.37,-0.31,0.28,0.08,0.91,3.0,313.31,15.88,-166.69,313.31,15.88,-166.69,0.17,0.39,-0.9,-0.05
3.0,142.56,33.94,1.44,142.56,33.94,1.44,-0.31,0.28,0.08,0.91,3.0,313.31,15.94,-166.63,313.31,15.94,-166.63,0.17,0.39,-0.9,-0.05
3.0,142.56,33.94,1.44,142.56,33.94,1.44,-0.31,0.28,0.08,0.91,3.0,313.38,16.12,-166.5,313.38,16.12,-166.5,0.17,0.39,-0.9,-0.05
3.0,142.56,33.94,1.44,142.56,33.94,1.44,-0.31,0.28,0.08,0.91,3.0,313.38,16.25,-166.5,313.38,16.25,-166.5,0.18,0.39,-0.9,-0.05
3.0,142.56,33.94,1.44,142.56,33.94,1.44,-0.31,0.28,0.08,0.91,3.0,313.38,16.31,-166.5,313.38,16.31,-166.5,0.18,0.39,-0.9,-0.05
3.0,142.56,34.0,1.44,142.56,34.0,1.44,-0.31,0.28,0.08,0.91,3.0,313.38,16.31,-166.56,313.38,16.31,-166.56,0.18,0.39,-0.9,-0.05
3.0,142.56,33.94,1.37,142.56,33.94,1.37,-0.31,0.28,0.08,0.91,3.0,313.31,16.19,-166.56,313.31,16.19,-166.56,0.17,0.39,-0.9,-0.05
3.0,142.56,33.94,1.37,142.56,33.94,1.37,-0.31,0.28,0.08,0.91,3.0,313.31,16.06,-166.63,313.31,16.06,-166.63,0.17,0.39,-0.9,-0.05
3.0,142.5,33.94,1.31,142.5,33.94,1.31,-0.31,0.28,0.08,0.91,3.0,313.31,16.0,-166.69,313.31,16.0,-166.69,0.17,0.39,-0.9,-0.05
3.0,142.56,33.88,1.25,142.56,33.88,1.25,-0.31,0.28,0.08,0.91,3.0,313.25,16.0,-166.75,313.25,16.0,-166.75,0.17,0.39,-0.9,-0.05
3.0,142.56,33.88,1.25,142.56,33.88,1.25,-0.31,0.28,0.08,0.91,3.0,313.25,15.88,-166.75,313.25,15.88,-166.75,0.17,0.39,-0.9,-0.05
3.0,142.56,33.88,1.25,142.56,33.88,1.25,-0.31,0.28,0.08,0.91,3.0,313.25,15.81,-166.69,313.25,15.81,-166.69,0.17,0.39,-0.9,-0.05
3.0,142.56,33.94,1.25,142.56,33.94,1.25,-0.31,0.28,0.08,0.91,3.0,313.25,15.88,-166.69,313.25,15.88,-166.69,0.17,0.39,-0.9,-0.05
3.0,142.56,33.94,1.19,142.56,33.94,1.19,-0.31,0.28,0.08,0.91,3.0,313.25,16.0,-166.75,313.25,16.0,-166.75,0.17,0.39,-0.9,-0.05
3.0,142.56,33.94,1.19,142.56,33.94,1.19,-0.31,0.28,0.08,0.91,3.0,313.25,16.06,-166.81,313.25,16.06,-166.81,0.17,0.39,-0.9,-0.05
3.0,142.56,34.0,1.25,142.56,34.0,1.25,-0.31,0.28,0.08,0.91,3.0,313.25,16.0,-166.88,313.25,16.0,-166.88,0.17,0.39,-0.9,-0.05
3.0,142.63,34.06,1.31,142.63,34.06,1.31,-0.31,0.28,0.08,0.91,3.0,313.19,15.88,-166.94,313.19,15.88,-166.94,0.17,0.39,-0.9,-0.05
3.0,142.63,34.06,1.25,142.63,34.06,1.25,-0.31,0.28,0.09,0.91,3.0,313.19,15.88,-166.88,313.19,15.88,-166.88,0.17,0.39,-0.9,-0.05
3.0,142.56,34.06,1.19,142.56,34.06,1.19,-0.31,0.28,0.09,0.91,3.0,313.25,15.94,-166.81,313.25,15.94,-166.81,0.17,0.39,-0.9,-0.05
3.0,142.56,34.0,1.19,142.56,34.0,1.19,-0.31,0.28,0.09,0.91,3.0,313.25,15.88,-166.81,313.25,15.88,-166.81,0.17,0.39,-0.9,-0.05
3.0,142.63,33.94,1.12,142.63,33.94,1.12,-0.31,0.28,0.09,0.91,3.0,313.25,15.81,-166.88,313.25,15.81,-166.88,0.17,0.39,-0.9,-0.05
3.0,142.63,33.94,1.06,142.63,33.94,1.06,-0.31,0.28,0.09,0.91,3.0,313.25,15.63,-166.88,313.25,15.63,-166.88,0.17,0.39,-0.9,-0.05
3.0,142.63,33.88,1.06,142.63,33.88,1.06,-0.31,0.28,0.09,0.91,3.0,313.25,15.5,-166.88,313.25,15.5,-166.88,0.17,0.39,-0.9,-0.05
3.0,142.63,33.88,1.0,142.63,33.88,1.0,-0.31,0.28,0.09,0.91,3.0,313.25,15.38,-166.88,313.25,15.38,-166.88,0.17,0.39,-0.9,-0.05
3.0,142.56,33.88,1.0,142.56,33.88,1.0,-0.31,0.28,0.09,0.91,3.0,313.25,15.38,-166.94,313.25,15.38,-166.94,0.17,0.39,-0.9,-0.05
3.0,142.63,33.94,1.06,142.63,33.94,1.06,-0.31,0.28,0.09,0.91,3.0,313.25,15.5,-166.88,313.25,15.5,-166.88,0.17,0.39,-0.9,-0.05
3.0,142.63,33.94,1.12,142.63,33.94,1.12,-0.31,0.28,0.09,0.91,3.0,313.25,15.56,-166.81,313.25,15.56,-166.81,0.17,0.39,-0.9,-0.05
3.0,142.63,33.94,1.12,142.63,33.94,1.12,-0.31,0.28,0.09,0.91,3.0,313.31,15.69,-166.69,313.31,15.69,-166.69,0.17,0.39,-0.9,-0.05
3.0,142.63,34.0,1.19,142.63,34.0,1.19,-0.31,0.28,0.09,0.91,3.0,313.38,15.88,-166.56,313.38,15.88,-166.56,0.17,0.39,-0.9,-0.05
3.0,142.63,34.06,1.12,142.63,34.06,1.12,-0.31,0.28,0.09,0.91,3.0,313.38,15.94,-166.5,313.38,15.94,-166.5,0.17,0.39,-0.9,-0.05
3.0,142.63,34.13,1.12,142.63,34.13,1.12,-0.31,0.28,0.09,0.91,3.0,313.38,15.94,-166.44,313.38,15.94,-166.44,0.17,0.39,-0.9,-0.05
3.0,142.69,34.13,1.25,142.69,34.13,1.25,-0.31,0.28,0.08,0.91,3.0,313.38,15.94,-166.44,313.38,15.94,-166.44,0.17,0.39,-0.9,-0.05
3.0,142.69,34.13,1.25,142.69,34.13,1.25,-0.31,0.28,0.08,0.91,3.0,313.38,15.94,-166.44,313.38,15.94,-166.44,0.17,0.39,-0.9,-0.05
3.0,142.69,34.13,1.25,142.69,34.13,1.25,-0.31,0.28,0.09,0.91,3.0,313.38,16.0,-166.38,313.38,16.0,-166.38,0.17,0.39,-0.9,-0.05
3.0,142.63,34.13,1.12,142.63,34.13,1.12,-0.31,0.28,0.09,0.91,3.0,313.44,16.0,-166.31,313.44,16.0,-166.31,0.17,0.39,-0.9,-0.05
3.0,142.63,34.13,1.06,142.63,34.13,1.06,-0.31,0.28,0.09,0.91,3.0,313.44,16.0,-166.38,313.44,16.0,-166.38,0.17,0.39,-0.9,-0.05
3.0,142.63,34.06,1.06,142.63,34.06,1.06,-0.31,0.28,0.09,0.91,3.0,313.44,16.0,-166.31,313.44,16.0,-166.31,0.17,0.39,-0.9,-0.05
3.0,142.56,34.0,1.0,142.56,34.0,1.0,-0.31,0.28,0.09,0.91,3.0,313.5,15.94,-166.25,313.5,15.94,-166.25,0.17,0.39,-0.9,-0.05
3.0,142.56,34.0,0.94,142.56,34.0,0.94,-0.31,0.28,0.09,0.91,3.0,313.5,15.75,-166.19,313.5,15.75,-166.19,0.17,0.39,-0.9,-0.05
3.0,142.56,34.0,1.0,142.56,34.0,1.0,-0.31,0.28,0.09,0.91,3.0,313.5,15.56,-166.19,313.5,15.56,-166.19,0.17,0.39,-0.9,-0.05
3.0,142.56,34.0,0.88,142.56,34.0,0.88,-0.31,0.28,0.09,0.91,3.0,313.5,15.44,-166.19,313.5,15.44,-166.19,0.17,0.39,-0.9,-0.05
3.0,142.56,34.0,0.81,142.56,34.0,0.81,-0.31,0.28,0.09,0.91,3.0,313.5,15.38,-166.19,313.5,15.38,-166.19,0.17,0.39,-0.9,-0.05
3.0,142.56,34.06,0.94,142.56,34.06,0.94,-0.31,0.28,0.09,0.91,3.0,313.5,15.38,-166.19,313.5,15.38,-166.19,0.17,0.39,-0.9,-0.05
3.0,142.56,34.19,0.94,142.56,34.19,0.94,-0.31,0.28,0.09,0.91,3.0,313.5,15.38,-166.19,313.5,15.38,-166.19,0.17,0.39,-0.9,-0.05
3.0,142.56,34.19,0.94,142.56,34.19,0.94,-0.31,0.28,0.09,0.91,3.0,313.56,15.38,-166.19,313.56,15.38,-166.19,0.17,0.39,-0.9,-0.05
3.0,142.56,34.19,0.88,142.56,34.19,0.88,-0.31,0.28,0.09,0.91,3.0,313.56,15.44,-166.13,313.56,15.44,-166.13,0.17,0.39,-0.9,-0.05
3.0,142.56,34.13,0.81,142.56,34.13,0.81,-0.31,0.28,0.09,0.91,3.0,313.56,15.5,-166.13,313.56,15.5,-166.13,0.17,0.39,-0.9,-0.05
3.0,142.56,34.06,0.88,142.56,34.06,0.88,-0.31,0.28,0.09,0.91,3.0,313.63,15.5,-166.06,313.63,15.5,-166.06,0.17,0.39,-0.9,-0.05
3.0,142.63,34.0,1.0,142.63,34.0,1.0,-0.31,0.28,0.09,0.91,3.0,313.63,15.5,-166.13,313.63,15.5,-166.13,0.17,0.39,-0.9,-0.05
3.0,142.63,34.0,1.06,142.63,34.0,1.06,-0.31,0.28,0.09,0.91,3.0,313.63,15.5,-166.13,313.63,15.5,-166.13,0.17,0.39,-0.9,-0.05
3.0,142.63,34.0,1.0,142.63,34.0,1.0,-0.31,0.28,0.09,0.91,3.0,313.63,15.5,-166.13,313.63,15.5,-166.13,0.17,0.39,-0.9,-0.05
3.0,142.56,34.0,0.94,142.56,34.0,0.94,-0.31,0.28,0.09,0.91,3.0,313.63,15.5,-166.06,313.63,15.5,-166.06,0.17,0.39,-0.9,-0.05
3.0,142.63,34.06,1.0,142.63,34.06,1.0,-0.31,0.28,0.09,0.91,3.0,313.63,15.5,-166.13,313.63,15.5,-166.13,0.17,0.39,-0.9,-0.05
3.0,142.63,34.13,1.0,142.63,34.13,1.0,-0.31,0.28,0.09,0.91,3.0,313.63,15.56,-166.13,313.63,15.56,-166.13,0.17,0.39,-0.9,-0.05
3.0,142.56,34.13,0.88,142.56,34.13,0.88,-0.31,0.28,0.09,0.91,3.0,313.63,15.63,-166.13,313.63,15.63,-166.13,0.17,0.39,-0.9,-0.05
3.0,142.63,34.06,1.0,142.63,34.06,1.0,-0.31,0.28,0.09,0.91,3.0,313.63,15.56,-166.13,313.63,15.56,-166.13,0.17,0.39,-0.9,-0.05
3.0,142.63,34.06,1.06,142.63,34.06,1.06,-0.31,0.28,0.09,0.91,3.0,313.63,15.5,-166.19,313.63,15.5,-166.19,0.17,0.39,-0.9,-0.05
3.0,142.56,34.06,0.94,142.56,34.06,0.94,-0.31,0.28,0.09,0.91,3.0,313.63,15.5,-166.19,313.63,15.5,-166.19,0.17,0.39,-0.9,-0.05
3.0,142.56,34.06,0.88,142.56,34.06,0.88,-0.31,0.28,0.09,0.91,3.0,313.63,15.5,-166.13,313.63,15.5,-166.13,0.17,0.39,-0.9,-0.05
3.0,142.56,34.13,0.88,142.56,34.13,0.88,-0.31,0.28,0.09,0.91,3.0,313.63,15.44,-166.13,313.63,15.44,-166.13,0.17,0.39,-0.9,-0.05
3.0,142.63,34.19,1.0,142.63,34.19,1.0,-0.31,0.28,0.09,0.91,3.0,313.63,15.44,-166.06,313.63,15.44,-166.06,0.17,0.39,-0.9,-0.05
3.0,142.63,34.38,1.0,142.63,34.38,1.0,-0.31,0.28,0.09,0.9,3.0,313.56,15.5,-166.13,313.56,15.5,-166.13,0.17,0.39,-0.9,-0.05
3.0,142.56,34.56,0.94,142.56,34.56,0.94,-0.31,0.28,0.09,0.9,3.0,313.63,15.63,-166.13,313.63,15.63,-166.13,0.17,0.39,-0.9,-0.05
3.0,142.56,34.63,0.88,142.56,34.63,0.88,-0.31,0.28,0.09,0.9,3.0,313.63,15.63,-166.19,313.63,15.63,-166.19,0.17,0.39,-0.9,-0.05
3.0,142.56,34.63,1.0,142.56,34.63,1.0,-0.31,0.28,0.09,0.9,3.0,313.63,15.5,-166.19,313.63,15.5,-166.19,0.17,0.39,-0.9,-0.05
3.0,142.63,34.56,1.19,142.63,34.56,1.19,-0.31,0.28,0.09,0.9,3.0,313.63,15.38,-166.06,313.63,15.38,-166.06,0.17,0.39,-0.9,-0.06
3.0,142.63,34.44,1.12,142.63,34.44,1.12,-0.31,0.28,0.09,0.9,3.0,313.69,15.31,-165.94,313.69,15.31,-165.94,0.17,0.39,-0.9,-0.06
3.0,142.63,34.38,1.12,142.63,34.38,1.12,-0.31,0.28,0.09,0.9,3.0,313.69,15.38,-165.94,313.69,15.38,-165.94,0.17,0.39,-0.9,-0.06
3.0,142.63,34.38,1.06,142.63,34.38,1.06,-0.31,0.28,0.09,0.9,3.0,313.69,15.5,-165.94,313.69,15.5,-165.94,0.17,0.39,-0.9,-0.06
3.0,142.63,34.38,1.12,142.63,34.38,1.12,-0.31,0.28,0.09,0.9,3.0,313.69,15.5,-165.94,313.69,15.5,-165.94,0.17,0.39,-0.9,-0.06
3.0,142.63,34.38,1.12,142.63,34.38,1.12,-0.31,0.28,0.09,0.9,3.0,313.69,15.38,-165.94,313.69,15.38,-165.94,0.17,0.39,-0.9,-0.06
3.0,142.63,34.38,1.06,142.63,34.38,1.06,-0.31,0.28,0.09,0.9,3.0,313.69,15.31,-165.94,313.69,15.31,-165.94,0.17,0.39,-0.9,-0.06
3.0,142.56,34.38,1.06,142.56,34.38,1.06,-0.31,0.28,0.09,0.9,3.0,313.75,15.31,-165.81,313.75,15.31,-165.81,0.17,0.39,-0.9,-0.06
3.0,142.56,34.38,1.0,142.56,34.38,1.0,-0.31,0.28,0.09,0.9,3.0,313.75,15.38,-165.81,313.75,15.38,-165.81,0.17,0.39,-0.9,-0.06
3.0,142.56,34.38,0.94,142.56,34.38,0.94,-0.31,0.28,0.09,0.9,3.0,313.75,15.38,-165.81,313.75,15.38,-165.81,0.17,0.39,-0.9,-0.06
3.0,142.56,34.44,0.94,142.56,34.44,0.94,-0.31,0.28,0.09,0.9,3.0,313.75,15.38,-165.81,313.75,15.38,-165.81,0.17,0.39,-0.9,-0.06
3.0,142.56,34.31,0.94,142.56,34.31,0.94,-0.31,0.28,0.09,0.9,3.0,313.75,15.38,-165.81,313.75,15.38,-165.81,0.17,0.39,-0.9,-0.06
3.0,142.56,34.31,0.94,142.56,34.31,0.94,-0.31,0.28,0.09,0.91,3.0,313.75,15.31,-165.81,313.75,15.31,-165.81,0.17,0.39,-0.9,-0.06
3.0,142.56,34.19,1.0,142.56,34.19,1.0,-0.31,0.28,0.09,0.91,3.0,313.75,15.31,-165.81,313.75,15.31,-165.81,0.17,0.39,-0.9,-0.06
3.0,142.5,34.13,0.88,142.5,34.13,0.88,-0.31,0.28,0.09,0.91,3.0,313.75,15.25,-165.81,313.75,15.25,-165.81,0.17,0.39,-0.9,-0.06
3.0,142.5,34.06,0.75,142.5,34.06,0.75,-0.31,0.28,0.09,0.91,3.0,313.69,15.25,-165.75,313.69,15.25,-165.75,0.17,0.39,-0.9,-0.06
3.0,142.5,34.0,0.75,142.5,34.0,0.75,-0.31,0.28,0.09,0.91,3.0,313.75,15.25,-165.75,313.75,15.25,-165.75,0.17,0.39,-0.9,-0.06
3.0,142.5,34.13,0.88,142.5,34.13,0.88,-0.31,0.28,0.09,0.91,3.0,313.69,15.25,-165.81,313.69,15.25,-165.81,0.17,0.39,-0.9,-0.06
3.0,142.5,34.19,0.75,142.5,34.19,0.75,-0.31,0.28,0.09,0.91,3.0,313.69,15.25,-165.81,313.69,15.25,-165.81,0.17,0.39,-0.9,-0.06
3.0,142.44,34.13,0.63,142.44,34.13,0.63,-0.31,0.28,0.09,0.91,3.0,313.69,15.31,-165.81,313.69,15.31,-165.81,0.17,0.39,-0.9,-0.06
3.0,142.44,34.13,0.63,142.44,34.13,0.63,-0.31,0.28,0.09,0.91,3.0,313.69,15.38,-165.81,313.69,15.38,-165.81,0.17,0.39,-0.9,-0.06
3.0,142.44,34.06,0.63,142.44,34.06,0.63,-0.31,0.28,0.09,0.91,3.0,313.69,15.31,-165.81,313.69,15.31,-165.81,0.17,0.39,-0.9,-0.06
3.0,142.44,33.94,0.56,142.44,33.94,0.56,-0.31,0.28,0.09,0.91,3.0,313.69,15.31,-165.81,313.69,15.31,-165.81,0.17,0.39,-0.9,-0.06
3.0,142.5,33.88,0.75,142.5,33.88,0.75,-0.31,0.28,0.09,0.91,3.0,313.63,15.31,-165.88,313.63,15.31,-165.88,0.17,0.39,-0.9,-0.06
3.0,142.56,34.0,1.0,142.56,34.0,1.0,-0.31,0.28,0.09,0.91,3.0,313.69,15.38,-165.88,313.69,15.38,-165.88,0.17,0.39,-0.9,-0.06
3.0,142.5,34.19,1.12,142.5,34.19,1.12,-0.31,0.28,0.09,0.9,3.0,313.63,15.31,-165.88,313.63,15.31,-165.88,0.17,0.39,-0.9,-0.06
3.0,142.5,34.38,1.25,142.5,34.38,1.25,-0.31,0.28,0.09,0.9,3.0,313.63,15.31,-165.81,313.63,15.31,-165.81,0.17,0.39,-0.9,-0.06
3.0,142.44,34.63,1.31,142.44,34.63,1.31,-0.31,0.29,0.09,0.9,3.0,313.63,15.31,-165.81,313.63,15.31,-165.81,0.17,0.39,-0.9,-0.06
3.0,142.44,34.75,1.31,142.44,34.75,1.31,-0.31,0.29,0.09,0.9,3.0,313.63,15.31,-165.81,313.63,15.31,-165.81,0.17,0.39,-0.9,-0.06
3.0,142.44,34.81,1.25,142.44,34.81,1.25,-0.31,0.29,0.09,0.9,3.0,313.63,15.31,-165.75,313.63,15.31,-165.75,0.17,0.39,-0.9,-0.06
3.0,142.44,34.81,1.25,142.44,34.81,1.25,-0.31,0.29,0.09,0.9,3.0,313.63,15.38,-165.75,313.63,15.38,-165.75,0.17,0.39,-0.9,-0.06
3.0,142.44,34.88,1.25,142.44,34.88,1.25,-0.31,0.29,0.09,0.9,3.0,313.63,15.38,-165.75,313.63,15.38,-165.75,0.17,0.39,-0.9,-0.06
3.0,142.44,34.75,1.19,142.44,34.75,1.19,-0.31,0.29,0.09,0.9,3.0,313.63,15.38,-165.75,313.63,15.38,-165.75,0.17,0.39,-0.9,-0.06
3.0,142.44,34.63,1.06,142.44,34.63,1.06,-0.31,0.28,0.09,0.9,3.0,313.63,15.38,-165.75,313.63,15.38,-165.75,0.17,0.39,-0.9,-0.06
3.0,142.44,34.44,1.0,142.44,34.44,1.0,-0.31,0.28,0.09,0.9,3.0,313.63,15.31,-165.75,313.63,15.31,-165.75,0.17,0.39,-0.9,-0.06
3.0,142.5,34.25,1.0,142.5,34.25,1.0,-0.31,0.28,0.09,0.9,3.0,313.63,15.19,-165.75,313.63,15.19,-165.75,0.17,0.39,-0.9,-0.06
3.0,142.5,34.06,1.0,142.5,34.06,1.0,-0.31,0.28,0.09,0.91,3.0,313.63,15.13,-165.88,313.63,15.13,-165.88,0.17,0.39,-0.9,-0.06
3.0,142.56,34.0,1.0,142.56,34.0,1.0,-0.31,0.28,0.09,0.91,3.0,313.56,15.19,-165.88,313.56,15.19,-165.88,0.17,0.39,-0.9,-0.06
3.0,142.56,34.0,0.88,142.56,34.0,0.88,-0.31,0.28,0.09,0.91,3.0,313.63,15.25,-165.81,313.63,15.25,-165.81,0.17,0.39,-0.9,-0.06
3.0,142.56,34.0,0.88,142.56,34.0,0.88,-0.31,0.28,0.09,0.91,3.0,313.63,15.31,-165.75,313.63,15.31,-165.75,0.17,0.39,-0.9,-0.06
3.0,142.56,34.06,0.88,142.56,34.06,0.88,-0.31,0.28,0.09,0.91,3.0,313.63,15.38,-165.75,313.63,15.38,-165.75,0.17,0.39,-0.9,-0.06
3.0,142.56,34.13,0.81,142.56,34.13,0.81,-0.31,0.28,0.09,0.91,3.0,313.63,15.44,-165.69,313.63,15.44,-165.69,0.17,0.39,-0.9,-0.06
3.0,142.56,34.19,0.81,142.56,34.19,0.81,-0.31,0.28,0.09,0.91,3.0,313.63,15.5,-165.69,313.63,15.5,-165.69,0.17,0.39,-0.9,-0.06
3.0,142.5,34.19,0.75,142.5,34.19,0.75,-0.31,0.28,0.09,0.91,3.0,313.69,15.56,-165.63,313.69,15.56,-165.63,0.17,0.39,-0.9,-0.06
3.0,142.5,34.13,0.75,142.5,34.13,0.75,-0.31,0.28,0.09,0.91,3.0,313.69,15.63,-165.56,313.69,15.63,-165.56,0.17,0.39,-0.9,-0.06
3.0,142.56,34.06,0.69,142.56,34.06,0.69,-0.31,0.28,0.09,0.91,3.0,313.69,15.69,-165.56,313.69,15.69,-165.56,0.17,0.39,-0.9,-0.06
