Calibration_1,AccX_1,AccY_1,AccZ_1,Roll_1,Pitch_1,Yaw_1,QuatW_1,QuatX_1,QuatY_1,QuatZ_1,Calibration_2,AccX_2,AccY_2,AccZ_2,Roll_2,Pitch_2,Yaw_2,QuatW_2,QuatX_2,QuatY_2,QuatZ_2
0.0,359.75,49.75,4.81,359.75,49.75,4.81,0.91,-0.03,-0.42,0.0,0.0,0.0,0.0,0.0,0.0,0.0,0.0,0.0,0.0,0.0,0.0
0.0,359.81,49.88,4.94,359.81,49.88,4.94,0.91,-0.03,-0.42,0.0,0.0,0.0,0.12,0.06,0.0,0.12,0.06,1.0,-0.0,-0.0,-0.0
0.0,359.81,50.0,5.06,359.81,50.0,5.06,0.91,-0.03,-0.42,0.0,0.0,0.06,0.19,0.12,0.06,0.19,0.12,1.0,-0.0,-0.0,-0.0
0.0,359.88,50.19,5.31,359.88,50.19,5.31,0.9,-0.03,-0.43,0.0,0.0,0.0,-81.31,-121.62,0.0,-81.31,-121.62,0.68,0.09,0.73,-0.0
0.0,359.94,50.31,5.5,359.94,50.31,5.5,0.9,-0.03,-0.43,0.0,0.0,0.0,-81.44,-121.25,0.0,-81.44,-121.25,0.68,0.09,0.73,-0.0
0.0,359.94,50.44,5.63,359.94,50.44,5.63,0.9,-0.03,-0.43,0.0,0.0,0.0,-81.5,-121.06,0.0,-81.5,-121.06,0.68,0.09,0.73,-0.0
0.0,359.94,50.5,5.75,359.94,50.5,5.75,0.9,-0.04,-0.43,0.0,0.0,359.81,-81.5,-121.19,359.81,-81.5,-121.19,0.68,0.09,0.73,0.0
0.0,359.94,50.5,5.69,359.94,50.5,5.69,0.9,-0.03,-0.43,0.0,0.0,359.56,-81.44,-121.56,359.56,-81.44,-121.56,0.68,0.09,0.73,0.0
0.0,359.94,50.38,5.63,359.94,50.38,5.63,0.9,-0.03,-0.43,0.0,0.0,359.44,-81.31,-121.87,359.44,-81.31,-121.87,0.68,0.09,0.73,0.0
0.0,359.94,50.25,5.56,359.94,50.25,5.56,0.9,-0.03,-0.42,0.0,0.0,359.44,-81.31,-121.81,359.44,-81.31,-121.81,0.68,0.09,0.73,0.0
0.0,359.94,50.19,5.5,359.94,50.19,5.5,0.9,-0.03,-0.42,0.0,0.0,359.56,-81.5,-121.19,359.56,-81.5,-121.19,0.68,0.09,0.73,0.0
0.0,359.94,50.19,5.44,359.94,50.19,5.44,0.9,-0.03,-0.42,0.0,0.0,359.38,-81.44,-121.0,359.38,-81.44,-121.0,0.68,0.09,0.73,0.0
0.0,359.94,50.25,5.5,359.94,50.25,5.5,0.9,-0.03,-0.43,0.0,0.0,359.19,-81.25,-121.37,359.19,-81.25,-121.37,0.68,0.09,0.73,0.01
0.0,359.88,50.38,5.63,359.88,50.38,5.63,0.9,-0.03,-0.43,0.0,0.0,359.0,-81.12,-121.94,359.0,-81.12,-121.94,0.68,0.09,0.73,0.01
0.0,359.88,50.5,5.75,359.88,50.5,5.75,0.9,-0.03,-0.43,0.0,0.0,358.94,-81.0,-122.44,358.94,-81.0,-122.44,0.68,0.09,0.73,0.01
0.0,359.88,50.56,5.75,359.88,50.56,5.75,0.9,-0.04,-0.43,0.0,0.0,358.88,-80.81,-122.94,358.88,-80.81,-122.94,0.68,0.09,0.73,0.01
0.0,359.88,50.63,5.81,359.88,50.63,5.81,0.9,-0.04,-0.43,0.0,0.0,358.88,-80.69,-123.25,358.88,-80.69,-123.25,0.67,0.09,0.73,0.01
0.0,359.88,50.63,5.81,359.88,50.63,5.81,0.9,-0.04,-0.43,0.0,0.0,358.81,-80.56,-123.5,358.81,-80.56,-123.5,0.67,0.09,0.73,0.01
0.0,359.88,50.63,5.88,359.88,50.63,5.88,0.9,-0.04,-0.43,0.0,0.0,358.75,-80.56,-123.69,358.75,-80.56,-123.69,0.67,0.09,0.73,0.01
0.0,359.94,50.63,5.88,359.94,50.63,5.88,0.9,-0.04,-0.43,0.0,0.0,358.69,-80.5,-123.81,358.69,-80.5,-123.81,0.67,0.09,0.73,0.01
0.0,359.94,50.56,5.88,359.94,50.56,5.88,0.9,-0.04,-0.43,0.0,0.0,358.63,-80.37,-123.94,358.63,-80.37,-123.94,0.67,0.09,0.73,0.01
0.0,359.94,50.56,5.88,359.94,50.56,5.88,0.9,-0.04,-0.43,0.0,0.0,358.63,-80.37,-124.06,358.63,-80.37,-124.06,0.67,0.09,0.73,0.01
0.0,359.94,50.56,5.88,359.94,50.56,5.88,0.9,-0.04,-0.43,0.0,0.0,358.69,-80.37,-124.0,358.69,-80.37,-124.0,0.67,0.09,0.73,0.01
0.0,359.94,50.5,5.88,359.94,50.5,5.88,0.9,-0.04,-0.43,0.0,0.0,358.69,-80.44,-123.81,358.69,-80.44,-123.81,0.67,0.09,0.73,0.01
0.0,359.94,50.5,5.88,359.94,50.5,5.88,0.9,-0.04,-0.43,0.0,0.0,358.69,-80.44,-123.75,358.69,-80.44,-123.75,0.67,0.09,0.73,0.01
0.0,359.94,50.5,5.88,359.94,50.5,5.88,0.9,-0.04,-0.43,0.0,0.0,358.69,-80.5,-123.75,358.69,-80.5,-123.75,0.67,0.09,0.73,0.01
0.0,359.94,50.5,5.88,359.94,50.5,5.88,0.9,-0.04,-0.43,0.0,0.0,358.69,-80.56,-123.62,358.69,-80.56,-123.62,0.67,0.09,0.73,0.01
0.0,359.94,50.44,5.81,359.94,50.44,5.81,0.9,-0.04,-0.43,0.0,0.0,358.69,-80.62,-123.56,358.69,-80.62,-123.56,0.67,0.09,0.73,0.01
0.0,359.94,50.38,5.81,359.94,50.38,5.81,0.9,-0.04,-0.43,0.0,0.0,358.63,-80.69,-123.37,358.63,-80.69,-123.37,0.68,0.09,0.73,0.01
0.0,359.94,50.25,5.75,359.94,50.25,5.75,0.9,-0.04,-0.43,0.0,0.0,358.63,-80.81,-123.12,358.63,-80.81,-123.12,0.68,0.09,0.73,0.01
0.0,359.94,50.19,5.69,359.94,50.19,5.69,0.9,-0.04,-0.42,0.0,0.0,358.63,-80.94,-122.81,358.63,-80.94,-122.81,0.68,0.09,0.73,0.01
0.0,359.94,50.19,5.69,359.94,50.19,5.69,0.9,-0.04,-0.42,0.0,0.0,358.63,-81.0,-122.62,358.63,-81.0,-122.62,0.68,0.09,0.73,0.01
0.0,0.0,50.13,5.69,0.0,50.13,5.69,0.9,-0.04,-0.42,0.0,0.0,358.63,-80.94,-122.69,358.63,-80.94,-122.69,0.68,0.09,0.73,0.01
0.0,359.94,50.19,5.69,359.94,50.19,5.69,0.9,-0.04,-0.42,0.0,0.0,358.63,-80.94,-122.62,358.63,-80.94,-122.62,0.68,0.09,0.73,0.01
0.0,359.94,50.25,5.69,359.94,50.25,5.69,0.9,-0.04,-0.43,0.0,0.0,358.63,-81.0,-122.56,358.63,-81.0,-122.56,0.68,0.09,0.73,0.01
0.0,359.94,50.25,5.69,359.94,50.25,5.69,0.9,-0.04,-0.43,0.0,0.0,358.63,-81.0,-122.56,358.63,-81.0,-122.56,0.68,0.09,0.73,0.01
0.0,359.94,50.25,5.69,359.94,50.25,5.69,0.9,-0.04,-0.43,0.0,0.0,358.63,-81.0,-122.56,358.63,-81.0,-122.56,0.68,0.09,0.73,0.01
0.0,359.94,50.31,5.69,359.94,50.31,5.69,0.9,-0.04,-0.43,0.0,0.0,358.63,-81.0,-122.62,358.63,-81.0,-122.62,0.68,0.09,0.73,0.01
0.0,359.94,50.31,5.69,359.94,50.31,5.69,0.9,-0.04,-0.43,0.0,0.0,358.63,-81.0,-122.81,358.63,-81.0,-122.81,0.68,0.09,0.73,0.01
0.0,359.94,50.25,5.69,359.94,50.25,5.69,0.9,-0.04,-0.43,0.0,0.0,358.56,-80.94,-123.0,358.56,-80.94,-123.0,0.68,0.09,0.73,0.01
0.0,0.0,50.19,5.69,0.0,50.19,5.69,0.9,-0.04,-0.42,0.0,0.0,358.5,-80.94,-123.0,358.5,-80.94,-123.0,0.68,0.09,0.73,0.01
0.0,0.0,50.19,5.69,0.0,50.19,5.69,0.9,-0.04,-0.42,-0.0,0.0,358.5,-80.94,-123.0,358.5,-80.94,-123.0,0.68,0.09,0.73,0.01
0.0,0.0,50.25,5.75,0.0,50.25,5.75,0.9,-0.04,-0.43,-0.0,0.0,358.5,-80.94,-123.12,358.5,-80.94,-123.12,0.68,0.09,0.73,0.01
0.0,0.0,50.31,5.81,0.0,50.31,5.81,0.9,-0.04,-0.43,-0.0,0.0,358.44,-80.87,-123.25,358.44,-80.87,-123.25,0.68,0.09,0.73,0.01
0.0,0.0,50.38,5.88,0.0,50.38,5.88,0.9,-0.04,-0.43,-0.0,0.0,358.44,-80.81,-123.5,358.44,-80.81,-123.5,0.68,0.09,0.73,0.01
0.0,0.0,50.44,5.94,0.0,50.44,5.94,0.9,-0.04,-0.43,-0.0,0.0,358.38,-80.75,-123.62,358.38,-80.75,-123.62,0.67,0.09,0.73,0.01
0.0,0.0,50.44,5.94,0.0,50.44,5.94,0.9,-0.04,-0.43,-0.0,0.0,358.44,-80.75,-123.75,358.44,-80.75,-123.75,0.67,0.09,0.73,0.01
0.0,0.06,50.44,6.0,0.06,50.44,6.0,0.9,-0.04,-0.43,-0.0,0.0,358.44,-80.69,-123.87,358.44,-80.69,-123.87,0.67,0.09,0.73,0.01
0.0,0.06,50.38,5.94,0.06,50.38,5.94,0.9,-0.04,-0.43,-0.0,0.0,358.38,-80.69,-124.0,358.38,-80.69,-124.0,0.67,0.09,0.73,0.01
0.0,0.0,50.38,5.94,0.0,50.38,5.94,0.9,-0.04,-0.43,-0.0,0.0,358.31,-80.62,-124.12,358.31,-80.62,-124.12,0.67,0.09,0.73,0.01
0.0,0.0,50.31,5.94,0.0,50.31,5.94,0.9,-0.04,-0.43,-0.0,0.0,358.25,-80.56,-124.31,358.25,-80.56,-124.31,0.67,0.09,0.73,0.01
0.0,0.0,50.31,5.94,0.0,50.31,5.94,0.9,-0.04,-0.43,-0.0,0.0,358.19,-80.5,-124.44,358.19,-80.5,-124.44,0.67,0.09,0.73,0.01
0.0,0.06,50.31,5.94,0.06,50.31,5.94,0.9,-0.04,-0.43,-0.0,0.0,358.19,-80.56,-124.37,358.19,-80.56,-124.37,0.67,0.09,0.73,0.01
0.0,0.06,50.31,5.94,0.06,50.31,5.94,0.9,-0.04,-0.43,-0.0,0.0,358.25,-80.62,-124.19,358.25,-80.62,-124.19,0.67,0.09,0.73,0.01
0.0,0.06,50.31,5.94,0.06,50.31,5.94,0.9,-0.04,-0.43,-0.0,0.0,358.31,-80.69,-124.06,358.31,-80.69,-124.06,0.67,0.09,0.73,0.01
0.0,0.06,50.31,6.0,0.06,50.31,6.0,0.9,-0.04,-0.43,-0.0,0.0,358.31,-80.75,-123.94,358.31,-80.75,-123.94,0.67,0.09,0.73,0.01
0.0,0.06,50.31,6.0,0.06,50.31,6.0,0.9,-0.04,-0.43,-0.0,0.0,358.31,-80.75,-123.81,358.31,-80.75,-123.81,0.67,0.09,0.73,0.01
0.0,0.06,50.31,6.0,0.06,50.31,6.0,0.9,-0.04,-0.43,-0.0,0.0,358.31,-80.81,-123.62,358.31,-80.81,-123.62,0.68,0.09,0.73,0.01
0.0,0.06,50.38,6.06,0.06,50.38,6.06,0.9,-0.04,-0.43,-0.0,0.0,358.38,-80.87,-123.44,358.38,-80.87,-123.44,0.68,0.09,0.73,0.01
0.0,0.06,50.38,6.06,0.06,50.38,6.06,0.9,-0.04,-0.43,-0.0,0.0,358.44,-80.94,-123.25,358.44,-80.94,-123.25,0.68,0.09,0.73,0.01
0.0,0.06,50.44,6.06,0.06,50.44,6.06,0.9,-0.04,-0.43,-0.0,0.0,358.44,-81.0,-123.12,358.44,-81.0,-123.12,0.68,0.09,0.73,0.01
0.0,0.06,50.44,6.13,0.06,50.44,6.13,0.9,-0.04,-0.43,-0.0,0.0,358.44,-81.0,-123.06,358.44,-81.0,-123.06,0.68,0.09,0.73,0.01
0.0,0.06,50.44,6.13,0.06,50.44,6.13,0.9,-0.04,-0.43,-0.0,0.0,358.44,-81.0,-123.06,358.44,-81.0,-123.06,0.68,0.09,0.73,0.01
0.0,0.06,50.44,6.13,0.06,50.44,6.13,0.9,-0.04,-0.43,-0.0,0.0,358.5,-81.06,-122.87,358.5,-81.06,-122.87,0.68,0.09,0.73,0.01
0.0,0.06,50.44,6.06,0.06,50.44,6.06,0.9,-0.04,-0.43,-0.0,0.0,358.5,-81.12,-122.81,358.5,-81.12,-122.81,0.68,0.09,0.73,0.01
0.0,0.06,50.44,6.06,0.06,50.44,6.06,0.9,-0.04,-0.43,-0.0,0.0,358.44,-81.06,-122.94,358.44,-81.06,-122.94,0.68,0.09,0.73,0.01
0.0,0.06,50.44,6.06,0.06,50.44,6.06,0.9,-0.04,-0.43,-0.0,0.0,358.38,-81.06,-123.06,358.38,-81.06,-123.06,0.68,0.09,0.73,0.01
0.0,0.06,50.44,6.06,0.06,50.44,6.06,0.9,-0.04,-0.43,-0.0,0.0,358.31,-81.06,-123.06,358.31,-81.06,-123.06,0.68,0.09,0.73,0.01
0.0,0.06,50.44,6.06,0.06,50.44,6.06,0.9,-0.04,-0.43,-0.0,0.0,358.31,-81.06,-123.12,358.31,-81.06,-123.12,0.68,0.09,0.73,0.01
0.0,0.06,50.44,6.06,0.06,50.44,6.06,0.9,-0.04,-0.43,-0.0,0.0,358.38,-81.06,-123.0,358.38,-81.06,-123.0,0.68,0.09,0.73,0.01
0.0,0.06,50.5,6.06,0.06,50.5,6.06,0.9,-0.04,-0.43,-0.0,0.0,358.44,-81.12,-122.81,358.44,-81.12,-122.81,0.68,0.09,0.73,0.01
0.0,0.06,50.5,6.0,0.06,50.5,6.0,0.9,-0.04,-0.43,-0.0,0.0,358.44,-81.12,-122.87,358.44,-81.12,-122.87,0.68,0.09,0.73,0.01
0.0,0.06,50.5,6.0,0.06,50.5,6.0,0.9,-0.04,-0.43,-0.0,0.0,358.38,-81.06,-123.12,358.38,-81.06,-123.12,0.68,0.09,0.73,0.01
0.0,0.0,50.44,5.94,0.0,50.44,5.94,0.9,-0.04,-0.43,-0.0,0.0,358.38,-81.0,-123.31,358.38,-81.0,-123.31,0.68,0.09,0.73,0.01
0.0,0.06,50.44,6.0,0.06,50.44,6.0,0.9,-0.04,-0.43,-0.0,0.0,358.31,-80.94,-123.5,358.31,-80.94,-123.5,0.68,0.09,0.73,0.01
0.0,0.06,50.44,6.0,0.06,50.44,6.0,0.9,-0.04,-0.43,-0.0,0.0,358.38,-80.94,-123.62,358.38,-80.94,-123.62,0.68,0.09,0.73,0.01
0.0,0.06,50.5,6.06,0.06,50.5,6.06,0.9,-0.04,-0.43,-0.0,0.0,358.44,-80.94,-123.5,358.44,-80.94,-123.5,0.68,0.09,0.73,0.01
0.0,0.06,50.63,6.19,0.06,50.63,6.19,0.9,-0.04,-0.43,-0.0,0.0,358.5,-81.0,-123.31,358.5,-81.0,-123.31,0.68,0.09,0.73,0.01
0.0,0.06,50.69,6.25,0.06,50.69,6.25,0.9,-0.04,-0.43,-0.0,0.0,358.5,-81.06,-123.12,358.5,-81.06,-123.12,0.68,0.09,0.73,0.01
0.0,0.0,50.69,6.25,0.0,50.69,6.25,0.9,-0.04,-0.43,-0.0,0.0,358.56,-81.06,-123.19,358.56,-81.06,-123.19,0.68,0.09,0.73,0.01
0.0,0.0,50.69,6.19,0.0,50.69,6.19,0.9,-0.04,-0.43,-0.0,0.0,358.56,-81.06,-123.25,358.56,-81.06,-123.25,0.68,0.09,0.73,0.01
0.0,0.06,50.63,6.13,0.06,50.63,6.13,0.9,-0.04,-0.43,-0.0,0.0,358.63,-81.06,-123.31,358.63,-81.06,-123.31,0.68,0.09,0.73,0.01
0.0,0.06,50.44,5.94,0.06,50.44,5.94,0.9,-0.04,-0.43,-0.0,0.0,358.63,-81.06,-123.25,358.63,-81.06,-123.25,0.68,0.09,0.73,0.01
0.0,0.06,50.31,5.88,0.06,50.31,5.88,0.9,-0.04,-0.43,-0.0,0.0,358.56,-81.06,-123.37,358.56,-81.06,-123.37,0.68,0.09,0.73,0.01
0.0,0.06,50.31,5.81,0.06,50.31,5.81,0.9,-0.04,-0.43,-0.0,0.0,358.5,-81.0,-123.62,358.5,-81.0,-123.62,0.68,0.09,0.73,0.01
0.0,0.06,50.25,5.81,0.06,50.25,5.81,0.9,-0.04,-0.43,-0.0,0.0,358.38,-80.94,-123.87,358.38,-80.94,-123.87,0.68,0.09,0.73,0.01
0.0,0.06,50.25,5.81,0.06,50.25,5.81,0.9,-0.04,-0.43,-0.0,0.0,358.31,-80.94,-123.94,358.31,-80.94,-123.94,0.68,0.09,0.73,0.01
0.0,0.06,50.25,5.81,0.06,50.25,5.81,0.9,-0.04,-0.43,-0.0,0.0,358.31,-80.94,-123.94,358.31,-80.94,-123.94,0.68,0.09,0.73,0.01
0.0,0.06,50.31,5.81,0.06,50.31,5.81,0.9,-0.04,-0.43,-0.0,0.0,358.38,-81.0,-123.62,358.38,-81.0,-123.62,0.68,0.09,0.73,0.01
0.0,0.06,50.38,5.81,0.06,50.38,5.81,0.9,-0.04,-0.43,-0.0,0.0,358.5,-81.06,-123.5,358.5,-81.06,-123.5,0.68,0.09,0.73,0.01
0.0,0.06,50.5,5.81,0.06,50.5,5.81,0.9,-0.04,-0.43,-0.0,0.0,358.56,-81.12,-123.31,358.56,-81.12,-123.31,0.68,0.09,0.73,0.01
0.0,0.06,50.63,5.94,0.06,50.63,5.94,0.9,-0.04,-0.43,-0.0,0.0,358.56,-81.19,-123.06,358.56,-81.19,-123.06,0.68,0.08,0.73,0.01
0.0,0.12,50.69,6.0,0.12,50.69,6.0,0.9,-0.04,-0.43,-0.0,0.0,358.56,-81.25,-123.0,358.56,-81.25,-123.0,0.68,0.08,0.73,0.01
0.0,0.12,50.63,6.0,0.12,50.63,6.0,0.9,-0.04,-0.43,-0.0,0.0,358.63,-81.31,-122.87,358.63,-81.31,-122.87,0.68,0.08,0.73,0.01
0.0,0.12,50.44,6.0,0.12,50.44,6.0,0.9,-0.04,-0.43,-0.0,0.0,358.56,-81.31,-122.87,358.56,-81.31,-122.87,0.68,0.08,0.73,0.01
0.0,0.19,50.13,6.13,0.19,50.13,6.13,0.9,-0.04,-0.42,-0.0,0.0,358.56,-81.31,-122.87,358.56,-81.31,-122.87,0.68,0.08,0.73,0.01
0.0,0.25,49.88,6.25,0.25,49.88,6.25,0.91,-0.04,-0.42,-0.0,0.0,358.5,-81.31,-122.94,358.5,-81.31,-122.94,0.68,0.08,0.73,0.01
0.0,0.25,49.69,6.31,0.25,49.69,6.31,0.91,-0.04,-0.42,-0.0,0.0,358.38,-81.25,-123.06,358.38,-81.25,-123.06,0.68,0.08,0.73,0.01
0.0,0.19,49.38,6.25,0.19,49.38,6.25,0.91,-0.04,-0.42,-0.0,0.0,358.38,-81.19,-123.0,358.38,-81.19,-123.0,0.68,0.08,0.73,0.01
0.0,0.0,49.13,6.19,0.0,49.13,6.19,0.91,-0.04,-0.42,-0.0,0.0,358.38,-81.25,-122.94,358.38,-81.25,-122.94,0.68,0.08,0.73,0.01
0.0,359.88,48.75,6.44,359.88,48.75,6.44,0.91,-0.04,-0.41,0.0,0.0,358.31,-81.19,-122.69,358.31,-81.19,-122.69,0.68,0.08,0.73,0.01
0.0,359.94,48.56,6.63,359.94,48.56,6.63,0.91,-0.04,-0.41,-0.0,0.0,358.25,-81.12,-122.44,358.25,-81.12,-122.44,0.68,0.09,0.73,0.01
0.0,0.12,48.38,8.25,0.12,48.38,8.25,0.91,-0.06,-0.41,-0.0,0.0,358.31,-81.12,-122.31,358.31,-81.12,-122.31,0.68,0.08,0.73,0.01
0.0,0.0,48.13,10.44,0.0,48.13,10.44,0.91,-0.07,-0.41,-0.0,0.0,358.13,-81.0,-122.62,358.13,-81.0,-122.62,0.68,0.09,0.73,0.01
0.0,0.63,47.88,13.63,0.63,47.88,13.63,0.91,-0.1,-0.41,-0.01,0.0,357.75,-80.69,-123.5,357.75,-80.69,-123.5,0.67,0.09,0.73,0.01
0.0,1.5,47.44,16.75,1.5,47.44,16.75,0.91,-0.12,-0.4,-0.01,0.0,356.81,-79.81,-124.56,356.81,-79.81,-124.56,0.67,0.09,0.74,0.02
0.0,2.88,47.56,21.44,2.88,47.56,21.44,0.9,-0.17,-0.41,-0.03,0.0,354.69,-78.19,-123.81,354.69,-78.19,-123.81,0.66,0.09,0.74,0.04
0.0,5.56,48.13,28.25,5.56,48.13,28.25,0.89,-0.21,-0.41,-0.05,0.0,352.25,-76.37,-124.44,352.25,-76.37,-124.44,0.65,0.1,0.75,0.05
0.0,7.06,49.06,34.63,7.06,49.06,34.63,0.87,-0.25,-0.42,-0.06,0.0,349.31,-74.12,-126.06,349.31,-74.12,-126.06,0.64,0.1,0.76,0.07
0.0,6.81,48.25,42.69,6.81,48.25,42.69,0.86,-0.29,-0.42,-0.06,0.0,335.38,-63.19,-127.75,335.38,-63.19,-127.75,0.54,0.17,0.81,0.17
0.0,7.13,48.44,45.5,7.13,48.44,45.5,0.85,-0.31,-0.42,-0.05,0.0,308.31,-41.56,-131.75,308.31,-41.56,-131.75,0.45,0.21,0.84,0.22
0.0,6.31,46.31,49.25,6.31,46.31,49.25,0.85,-0.34,-0.4,-0.05,0.0,300.5,-37.81,-132.44,300.5,-37.81,-132.44,0.42,0.21,0.85,0.24
0.0,5.31,43.44,52.88,5.31,43.44,52.88,0.85,-0.37,-0.38,-0.04,0.0,291.5,-33.13,-134.0,291.5,-33.13,-134.0,0.38,0.21,0.86,0.26
0.0,4.0,40.5,56.88,4.0,40.5,56.88,0.84,-0.39,-0.37,-0.03,0.0,276.19,-25.62,-135.06,276.19,-25.62,-135.06,0.32,0.22,0.88,0.28
0.0,2.44,37.94,61.88,2.44,37.94,61.88,0.82,-0.44,-0.36,-0.01,0.0,265.75,-21.94,-133.88,265.75,-21.94,-133.88,0.29,0.21,0.88,0.31
0.0,0.69,35.63,66.81,0.69,35.63,66.81,0.81,-0.46,-0.36,-0.01,0.0,254.06,-18.12,-131.31,254.06,-18.12,-131.31,0.26,0.21,0.88,0.34
0.0,358.69,32.5,71.06,358.69,32.5,71.06,0.8,-0.5,-0.34,0.01,0.0,241.94,-13.94,-128.19,241.94,-13.94,-128.19,0.23,0.21,0.87,0.38
0.0,356.25,28.06,74.87,356.25,28.06,74.87,0.78,-0.55,-0.31,0.03,0.0,237.19,-13.0,-124.69,237.19,-13.0,-124.69,0.23,0.2,0.86,0.41
0.0,352.94,23.25,79.87,352.94,23.25,79.87,0.76,-0.58,-0.3,0.05,0.0,232.31,-11.0,-121.44,232.31,-11.0,-121.44,0.22,0.2,0.84,0.46
0.0,349.44,17.69,85.37,349.44,17.69,85.37,0.73,-0.63,-0.27,0.07,0.0,223.75,-7.88,-115.87,223.75,-7.88,-115.87,0.2,0.19,0.82,0.49
0.0,346.5,12.81,89.81,346.5,12.81,89.81,0.7,-0.67,-0.24,0.08,0.0,221.44,-6.5,-114.37,221.44,-6.5,-114.37,0.19,0.2,0.81,0.51
0.0,343.5,8.44,93.5,343.5,8.44,93.5,0.68,-0.7,-0.21,0.1,0.0,220.75,-5.13,-112.44,220.75,-5.13,-112.44,0.2,0.22,0.8,0.53
0.0,341.31,4.69,98.44,341.31,4.69,98.44,0.64,-0.73,-0.18,0.11,0.0,221.06,-4.06,-111.87,221.06,-4.06,-111.87,0.2,0.24,0.8,0.52
0.0,339.88,1.81,104.0,339.88,1.81,104.0,0.61,-0.77,-0.16,0.11,0.0,221.31,-2.38,-114.44,221.31,-2.38,-114.44,0.18,0.28,0.8,0.49
0.0,337.88,-1.69,107.62,337.88,-1.69,107.62,0.58,-0.8,-0.13,0.11,0.0,221.69,0.44,-121.44,221.69,0.44,-121.44,0.17,0.33,0.82,0.43
0.0,337.94,-3.88,110.25,337.94,-3.88,110.25,0.55,-0.82,-0.08,0.1,0.0,227.81,-0.44,-129.5,227.81,-0.44,-129.5,0.17,0.37,0.84,0.37
0.0,341.13,-6.56,114.56,341.13,-6.56,114.56,0.52,-0.85,-0.01,0.08,0.0,51.19,1.31,-138.56,51.19,1.31,-138.56,0.13,0.42,0.85,0.3
0.0,343.31,-9.25,119.62,343.31,-9.25,119.62,0.49,-0.87,0.06,0.07,0.0,54.94,0.31,-147.44,54.94,0.31,-147.44,0.13,0.44,0.85,0.25
0.0,343.31,-12.0,123.56,343.31,-12.0,123.56,0.47,-0.87,0.11,0.07,0.0,58.06,-0.56,-153.69,58.06,-0.56,-153.69,0.12,0.47,0.85,0.2
0.0,343.25,-14.06,128.06,343.25,-14.06,128.06,0.43,-0.89,0.17,0.06,0.0,64.0,2.69,-153.31,64.0,2.69,-153.31,0.1,0.52,0.83,0.21
0.0,345.0,-15.31,133.94,345.0,-15.31,133.94,0.39,-0.89,0.23,0.06,0.0,68.44,3.75,-150.13,68.44,3.75,-150.13,0.12,0.54,0.8,0.23
0.0,339.75,-18.87,137.0,339.75,-18.87,137.0,0.38,-0.88,0.28,0.07,0.0,73.06,5.25,-149.75,73.06,5.25,-149.75,0.12,0.57,0.78,0.24
0.0,218.31,-20.69,140.88,218.31,-20.69,140.88,0.35,-0.88,0.32,0.08,0.0,78.69,8.69,-147.13,78.69,8.69,-147.13,0.12,0.61,0.74,0.27
0.0,224.13,-21.94,146.19,224.13,-21.94,146.19,0.32,-0.87,0.37,0.08,0.0,82.31,6.94,-143.81,82.31,6.94,-143.81,0.16,0.62,0.71,0.27
0.0,229.5,-23.12,150.5,229.5,-23.12,150.5,0.3,-0.86,0.41,0.09,0.0,83.06,5.13,-139.81,83.06,5.13,-139.81,0.19,0.62,0.7,0.29
0.0,235.5,-25.12,154.75,235.5,-25.12,154.75,0.27,-0.84,0.46,0.11,0.0,81.81,4.94,-135.56,81.81,4.94,-135.56,0.22,0.59,0.7,0.34
0.0,240.25,-24.75,160.0,240.25,-24.75,160.0,0.24,-0.83,0.5,0.11,0.0,242.25,6.0,-125.56,242.25,6.0,-125.56,0.24,0.53,0.69,0.43
0.0,245.75,-23.69,164.75,245.75,-23.69,164.75,0.21,-0.81,0.54,0.11,0.0,221.5,11.69,-113.0,221.5,11.69,-113.0,0.16,0.42,0.69,0.56
0.0,247.44,-24.12,165.94,247.44,-24.12,165.94,0.21,-0.81,0.53,0.11,0.0,195.63,18.25,-102.19,195.63,18.25,-102.19,0.05,0.31,0.7,0.64
0.0,246.81,-23.69,166.0,246.81,-23.69,166.0,0.21,-0.81,0.53,0.11,0.0,176.5,21.0,-96.12,176.5,21.0,-96.12,-0.02,0.25,0.7,0.67
0.0,247.44,-23.06,167.25,247.44,-23.06,167.25,0.2,-0.81,0.55,0.11,0.0,170.88,21.62,-93.19,170.88,21.62,-93.19,-0.07,0.2,0.69,0.7
0.0,251.5,-23.5,168.31,251.5,-23.5,168.31,0.2,-0.78,0.58,0.11,0.0,164.31,22.56,-86.62,164.31,22.56,-86.62,-0.11,0.17,0.66,0.73
0.0,253.75,-24.44,165.5,253.75,-24.44,165.5,0.23,-0.77,0.59,0.1,0.0,163.5,22.0,-83.37,163.5,22.0,-83.37,-0.1,0.16,0.65,0.74
0.0,257.5,-25.56,163.63,257.5,-25.56,163.63,0.25,-0.75,0.61,0.09,0.0,165.88,20.44,-82.06,165.88,20.44,-82.06,-0.09,0.15,0.64,0.75
0.0,259.63,-25.94,162.0,259.63,-25.94,162.0,0.27,-0.73,0.62,0.08,0.0,165.06,20.75,-80.5,165.06,20.75,-80.5,-0.1,0.15,0.63,0.76
0.0,262.31,-28.69,157.69,262.31,-28.69,157.69,0.32,-0.71,0.63,0.07,0.0,165.25,20.94,-79.44,165.25,20.94,-79.44,-0.09,0.16,0.62,0.76
0.0,265.5,-32.94,149.88,265.5,-32.94,149.88,0.39,-0.67,0.63,0.06,0.0,168.44,21.0,-78.44,168.44,21.0,-78.44,-0.06,0.18,0.61,0.77
0.0,347.31,-35.88,142.56,347.31,-35.88,142.56,0.43,-0.65,0.62,0.04,0.0,176.88,20.19,-79.19,176.88,20.19,-79.19,0.0,0.22,0.6,0.77
0.0,350.81,-36.63,137.38,350.81,-36.63,137.38,0.46,-0.65,0.6,0.03,0.0,188.31,18.19,-80.12,188.31,18.19,-80.12,0.08,0.26,0.59,0.76
0.0,352.88,-36.19,132.81,352.88,-36.19,132.81,0.48,-0.66,0.57,0.03,0.0,201.94,15.56,-81.44,201.94,15.56,-81.44,0.17,0.31,0.58,0.73
0.0,356.25,-34.44,127.12,356.25,-34.44,127.12,0.51,-0.68,0.53,0.01,0.0,215.5,13.06,-82.31,215.5,13.06,-82.31,0.25,0.35,0.56,0.71
0.0,0.56,-31.5,120.5,0.56,-31.5,120.5,0.54,-0.69,0.48,-0.01,0.0,226.38,11.5,-83.69,226.38,11.5,-83.69,0.31,0.4,0.55,0.67
0.0,1.5,-29.69,114.06,1.5,-29.69,114.06,0.58,-0.69,0.43,-0.01,0.0,234.31,10.94,-87.75,234.31,10.94,-87.75,0.34,0.45,0.55,0.62
0.0,1.94,-27.06,109.37,1.94,-27.06,109.37,0.6,-0.71,0.38,-0.01,0.0,239.5,11.31,-94.0,239.5,11.31,-94.0,0.33,0.5,0.55,0.58
0.0,4.44,-22.31,106.81,4.44,-22.31,106.81,0.61,-0.73,0.32,-0.03,0.0,239.69,14.06,-101.87,239.69,14.06,-101.87,0.3,0.56,0.55,0.54
0.0,8.69,-15.38,104.75,8.69,-15.38,104.75,0.61,-0.75,0.24,-0.06,0.0,237.94,17.94,-109.56,237.94,17.94,-109.56,0.27,0.62,0.54,0.5
0.0,12.56,-7.81,103.44,12.56,-7.81,103.44,0.62,-0.76,0.18,-0.07,0.0,235.63,20.69,-118.44,235.63,20.69,-118.44,0.23,0.68,0.53,0.45
0.0,11.25,-5.5,102.69,11.25,-5.5,102.69,0.62,-0.77,0.15,-0.06,0.0,229.25,24.44,-127.06,229.25,24.44,-127.06,0.18,0.73,0.51,0.42
0.0,11.5,-3.69,102.25,11.5,-3.69,102.25,0.62,-0.77,0.12,-0.07,0.0,226.31,24.37,-136.19,226.31,24.37,-136.19,0.16,0.77,0.5,0.36
0.0,11.88,-1.69,102.19,11.88,-1.69,102.19,0.62,-0.77,0.1,-0.06,0.0,113.06,20.5,-143.81,113.06,20.5,-143.81,0.13,0.79,0.52,0.31
0.0,9.56,-1.12,102.81,9.56,-1.12,102.81,0.62,-0.78,0.08,-0.05,0.0,113.19,20.31,-148.94,113.19,20.31,-148.94,0.11,0.8,0.52,0.29
0.0,8.13,-0.12,103.56,8.13,-0.12,103.56,0.62,-0.78,0.06,-0.04,0.0,113.62,19.75,-150.5,113.62,19.75,-150.5,0.11,0.8,0.52,0.28
0.0,6.81,0.44,105.25,6.81,0.44,105.25,0.61,-0.79,0.04,-0.04,0.0,113.56,18.06,-149.63,113.56,18.06,-149.63,0.12,0.8,0.52,0.27
0.0,4.63,0.31,107.81,4.63,0.31,107.81,0.59,-0.81,0.03,-0.02,0.0,113.81,17.31,-147.63,113.81,17.31,-147.63,0.14,0.8,0.52,0.28
0.0,2.19,-0.06,110.81,2.19,-0.06,110.81,0.57,-0.82,0.02,-0.01,0.0,113.87,16.5,-145.63,113.87,16.5,-145.63,0.16,0.79,0.51,0.29
0.0,0.12,-0.56,114.12,0.12,-0.56,114.12,0.54,-0.84,0.01,-0.0,0.0,114.19,16.94,-142.94,114.19,16.94,-142.94,0.18,0.79,0.51,0.3
0.0,358.63,-1.06,116.31,358.63,-1.06,116.31,0.52,-0.85,0.01,0.01,0.0,115.19,17.94,-140.31,115.19,17.94,-140.31,0.19,0.79,0.49,0.32
0.0,356.06,-2.13,119.5,356.06,-2.13,119.5,0.5,-0.87,0.01,0.02,0.0,242.94,18.81,-137.5,242.94,18.81,-137.5,0.21,0.78,0.48,0.34
0.0,353.88,-3.06,122.62,353.88,-3.06,122.62,0.47,-0.88,0.01,0.03,0.0,241.69,20.62,-135.06,241.69,20.62,-135.06,0.21,0.78,0.47,0.36
0.0,351.06,-4.25,125.81,351.06,-4.25,125.81,0.45,-0.89,0.01,0.04,0.0,235.63,23.19,-134.94,235.63,23.19,-134.94,0.19,0.78,0.47,0.38
0.0,347.88,-5.69,129.0,347.88,-5.69,129.0,0.42,-0.91,0.02,0.05,0.0,230.88,25.0,-135.38,230.88,25.0,-135.38,0.18,0.78,0.47,0.38
0.0,346.31,-6.19,132.38,346.31,-6.19,132.38,0.4,-0.92,0.03,0.05,0.0,234.94,23.12,-135.38,234.94,23.12,-135.38,0.2,0.78,0.47,0.37
0.0,184.19,-7.0,135.5,184.19,-7.0,135.5,0.37,-0.93,0.04,0.05,0.0,236.19,22.62,-134.69,236.19,22.62,-134.69,0.19,0.77,0.48,0.37
0.0,184.88,-7.81,139.38,184.88,-7.81,139.38,0.34,-0.94,0.04,0.06,0.0,231.25,23.12,-136.19,231.25,23.12,-136.19,0.17,0.76,0.5,0.37
0.0,186.0,-8.69,142.63,186.0,-8.69,142.63,0.31,-0.95,0.05,0.06,0.0,224.88,23.06,-138.38,224.88,23.06,-138.38,0.14,0.75,0.54,0.37
0.0,187.44,-8.88,146.38,187.44,-8.88,146.38,0.28,-0.96,0.07,0.06,0.0,214.0,24.31,-140.31,214.0,24.31,-140.31,0.1,0.72,0.58,0.37
0.0,189.38,-9.5,150.44,189.38,-9.5,150.44,0.25,-0.96,0.09,0.07,0.0,98.0,25.19,-141.63,98.0,25.19,-141.63,0.07,0.69,0.62,0.37
0.0,191.31,-9.63,153.69,191.31,-9.63,153.69,0.22,-0.97,0.1,0.06,0.0,90.31,26.25,-142.81,90.31,26.25,-142.81,0.04,0.66,0.65,0.38
0.0,193.44,-9.31,156.94,193.44,-9.31,156.94,0.19,-0.97,0.12,0.06,0.0,178.5,27.87,-142.88,178.5,27.87,-142.88,-0.01,0.6,0.7,0.38
0.0,194.94,-8.69,160.63,194.94,-8.69,160.63,0.17,-0.98,0.14,0.05,0.0,164.13,30.25,-141.38,164.13,30.25,-141.38,-0.06,0.53,0.75,0.4
0.0,197.25,-7.75,164.38,197.25,-7.75,164.38,0.13,-0.98,0.15,0.04,0.0,151.31,32.38,-138.31,151.31,32.38,-138.31,-0.11,0.44,0.79,0.42
0.0,199.44,-6.5,168.25,199.44,-6.5,168.25,0.1,-0.98,0.18,0.04,0.0,144.19,32.69,-133.88,144.19,32.69,-133.88,-0.14,0.36,0.81,0.43
0.0,201.44,-4.88,172.0,201.44,-4.88,172.0,0.06,-0.98,0.19,0.03,0.0,143.0,31.69,-128.13,143.0,31.69,-128.13,-0.15,0.29,0.82,0.46
0.0,203.19,-3.69,176.06,203.19,-3.69,176.06,0.03,-0.98,0.21,0.03,0.0,144.31,31.0,-121.44,144.31,31.0,-121.44,-0.16,0.25,0.81,0.5
0.0,205.31,-2.75,179.88,205.31,-2.75,179.88,-0.01,-0.97,0.22,0.02,0.0,146.44,29.81,-114.37,146.44,29.81,-114.37,-0.16,0.22,0.79,0.54
0.0,206.88,-1.63,-176.06,206.88,-1.63,-176.06,-0.04,-0.97,0.24,0.02,0.0,150.0,27.19,-108.19,150.0,27.19,-108.19,-0.16,0.19,0.78,0.58
0.0,208.56,-0.19,-171.25,208.56,-0.19,-171.25,-0.09,-0.96,0.25,0.02,0.0,153.5,25.5,-101.56,153.5,25.5,-101.56,-0.15,0.17,0.75,0.62
0.0,210.94,2.25,-167.19,210.94,2.25,-167.19,-0.05,-0.2,0.97,0.12,0.0,151.63,27.94,-97.62,151.63,27.94,-97.62,-0.16,0.18,0.73,0.64
0.0,338.88,4.63,-163.94,338.88,4.63,-163.94,-0.08,-0.18,0.97,0.14,0.0,153.06,30.19,-96.06,153.06,30.19,-96.06,-0.16,0.21,0.71,0.66
0.0,339.75,7.69,-160.38,339.75,7.69,-160.38,-0.11,-0.17,0.97,0.16,0.0,163.81,26.81,-96.56,163.81,26.81,-96.56,-0.09,0.24,0.7,0.66
0.0,340.94,10.75,-157.06,340.94,10.75,-157.06,-0.14,-0.16,0.96,0.18,0.0,172.75,23.0,-95.5,172.75,23.0,-95.5,-0.04,0.25,0.7,0.67
0.0,341.81,13.5,-153.81,341.81,13.5,-153.81,-0.16,-0.15,0.95,0.21,0.0,172.25,23.75,-93.81,172.25,23.75,-93.81,-0.05,0.25,0.68,0.68
0.0,342.25,16.0,-151.31,342.25,16.0,-151.31,-0.19,-0.15,0.95,0.22,0.0,174.44,24.12,-92.44,174.44,24.12,-92.44,-0.03,0.26,0.67,0.69
0.0,342.5,18.0,-149.69,342.5,18.0,-149.69,-0.2,-0.14,0.94,0.22,0.0,179.56,23.81,-91.56,179.56,23.81,-91.56,-0.0,0.29,0.66,0.7
0.0,342.56,19.37,-148.88,342.56,19.37,-148.88,-0.22,-0.14,0.94,0.23,0.0,186.56,23.06,-91.62,186.56,23.06,-91.62,0.04,0.32,0.64,0.7
0.0,342.31,20.56,-148.44,342.31,20.56,-148.44,-0.23,-0.15,0.94,0.23,0.0,194.88,22.0,-92.25,194.88,22.0,-92.25,0.09,0.35,0.63,0.69
0.0,342.19,21.44,-148.31,342.19,21.44,-148.31,-0.23,-0.15,0.94,0.22,0.0,202.13,21.44,-93.37,202.13,21.44,-93.37,0.13,0.39,0.61,0.67
0.0,342.38,21.94,-148.56,342.38,21.94,-148.56,-0.23,-0.15,0.94,0.22,0.0,207.44,22.0,-96.19,207.44,22.0,-96.19,0.16,0.43,0.6,0.65
0.0,342.25,21.69,-149.5,342.25,21.69,-149.5,-0.23,-0.15,0.94,0.21,0.0,213.75,22.12,-100.87,213.75,22.12,-100.87,0.19,0.49,0.59,0.61
0.0,341.75,20.87,-150.13,341.75,20.87,-150.13,-0.22,-0.15,0.94,0.21,0.0,219.63,22.25,-106.19,219.63,22.25,-106.19,0.21,0.54,0.58,0.57
0.0,341.75,19.44,-152.69,341.75,19.44,-152.69,-0.2,-0.15,0.95,0.19,0.0,221.88,24.31,-111.94,221.88,24.31,-111.94,0.21,0.6,0.56,0.54
0.0,341.5,17.37,-155.44,341.5,17.37,-155.44,-0.18,-0.16,0.96,0.17,0.0,228.56,24.19,-118.81,228.56,24.19,-118.81,0.22,0.66,0.53,0.48
0.0,341.81,14.69,-159.19,341.81,14.69,-159.19,-0.14,-0.15,0.97,0.15,0.0,236.94,22.81,-125.0,236.94,22.81,-125.0,0.23,0.72,0.49,0.43
0.0,342.69,10.19,-164.63,342.69,10.19,-164.63,-0.09,-0.14,0.98,0.1,0.0,238.0,23.0,-129.63,238.0,23.0,-129.63,0.22,0.76,0.47,0.4
3.0,343.38,5.06,-171.44,343.38,5.06,-171.44,-0.04,-0.15,0.99,0.06,0.0,231.75,25.44,-131.31,231.75,25.44,-131.31,0.2,0.76,0.47,0.4
3.0,341.88,2.0,-174.06,341.88,2.0,-174.06,-0.02,-0.16,0.99,0.04,0.0,232.06,24.81,-132.75,232.06,24.81,-132.75,0.19,0.76,0.47,0.39
3.0,340.0,0.69,-176.75,340.0,0.69,-176.75,-0.0,-0.18,0.98,0.02,0.0,234.31,23.81,-133.63,234.31,23.81,-133.63,0.2,0.77,0.47,0.38
3.0,338.69,-1.75,178.63,338.69,-1.75,178.63,0.03,-0.19,0.98,-0.02,0.0,141.56,23.94,-133.38,141.56,23.94,-133.38,-0.14,0.19,0.88,0.41
3.0,337.69,-4.63,174.81,337.69,-4.63,174.81,0.06,-0.19,0.98,-0.04,0.0,140.13,25.19,-132.5,140.13,25.19,-132.5,-0.15,0.2,0.88,0.41
3.0,337.0,-6.56,171.56,337.0,-6.56,171.56,0.08,-0.2,0.97,-0.07,0.0,139.0,26.31,-131.06,139.0,26.31,-131.06,-0.16,0.2,0.87,0.42
3.0,335.0,-7.63,167.94,335.0,-7.63,167.94,0.1,-0.22,0.97,-0.1,0.0,140.19,26.31,-129.63,140.19,26.31,-129.63,-0.15,0.19,0.86,0.44
3.0,334.13,-10.63,163.13,334.13,-10.63,163.13,0.13,-0.22,0.96,-0.13,0.0,152.44,20.69,-124.5,152.44,20.69,-124.5,-0.12,0.17,0.86,0.47
3.0,332.44,-12.13,160.19,332.44,-12.13,160.19,0.15,-0.24,0.95,-0.14,0.0,161.19,16.37,-119.0,161.19,16.37,-119.0,-0.07,0.12,0.83,0.54
3.0,330.0,-13.13,157.13,330.0,-13.13,157.13,0.17,-0.26,0.94,-0.17,0.0,156.0,14.31,-95.75,156.0,14.31,-95.75,-0.14,0.03,0.74,0.66
3.0,327.06,-14.69,152.31,327.06,-14.69,152.31,0.2,-0.28,0.92,-0.2,0.0,133.88,16.37,-83.0,133.88,16.37,-83.0,-0.29,-0.08,0.66,0.69
3.0,325.06,-15.38,148.19,325.06,-15.38,148.19,0.22,-0.29,0.91,-0.22,0.0,130.13,13.94,-80.56,130.13,13.94,-80.56,-0.32,-0.13,0.63,0.7
3.0,322.69,-15.06,144.81,322.69,-15.06,144.81,0.23,-0.31,0.89,-0.24,0.0,136.13,8.81,-76.31,136.13,8.81,-76.31,-0.29,-0.14,0.6,0.73
3.0,318.38,-14.19,140.38,318.38,-14.19,140.38,0.24,-0.34,0.87,-0.27,0.0,137.94,7.31,-75.19,137.94,7.31,-75.19,-0.28,-0.15,0.59,0.74
3.0,100.56,-11.94,135.88,100.56,-11.94,135.88,0.24,-0.37,0.84,-0.31,0.0,139.0,5.38,-75.25,139.0,5.38,-75.25,-0.28,-0.16,0.59,0.74
3.0,107.56,-8.38,133.0,107.56,-8.38,133.0,0.24,-0.39,0.82,-0.34,0.0,133.06,6.25,-77.5,133.06,6.25,-77.5,-0.32,-0.19,0.6,0.7
3.0,113.94,-4.31,129.69,113.94,-4.31,129.69,0.23,-0.43,0.79,-0.37,0.0,126.44,8.31,-81.5,126.44,8.31,-81.5,-0.35,-0.21,0.63,0.66
3.0,119.37,-0.5,125.37,119.37,-0.5,125.37,0.23,-0.45,0.76,-0.41,0.0,120.94,11.44,-87.5,120.94,11.44,-87.5,-0.36,-0.22,0.67,0.61
3.0,126.06,4.19,121.69,126.06,4.19,121.69,0.22,-0.47,0.73,-0.45,1.0,116.31,14.31,-95.5,116.31,14.31,-95.5,-0.35,-0.22,0.72,0.55
3.0,133.0,9.69,117.75,133.0,9.69,117.75,0.2,-0.49,0.69,-0.49,1.0,111.44,16.37,-102.94,111.44,16.37,-102.94,-0.35,-0.24,0.75,0.5
3.0,138.94,15.5,112.69,138.94,15.5,112.69,0.19,-0.51,0.64,-0.54,3.0,105.81,18.0,-109.25,105.81,18.0,-109.25,-0.35,-0.26,0.78,0.46
3.0,144.25,20.81,107.69,144.25,20.81,107.69,0.18,-0.51,0.6,-0.58,3.0,108.0,15.31,-112.69,108.0,15.31,-112.69,-0.33,-0.28,0.78,0.46
3.0,148.63,26.06,102.06,148.63,26.06,102.06,0.17,-0.52,0.55,-0.63,3.0,109.37,13.75,-108.19,109.37,13.75,-108.19,-0.35,-0.29,0.74,0.49
3.0,151.44,30.25,95.87,151.44,30.25,95.87,0.16,-0.52,0.51,-0.67,3.0,109.37,12.56,-101.5,109.37,12.56,-101.5,-0.38,-0.3,0.7,0.53
3.0,153.88,34.19,90.81,153.88,34.19,90.81,0.16,-0.52,0.47,-0.69,3.0,105.75,12.25,-95.56,105.75,12.25,-95.56,-0.42,-0.32,0.66,0.54
3.0,155.56,38.0,85.37,155.56,38.0,85.37,0.15,-0.53,0.42,-0.72,3.0,100.62,12.0,-89.81,100.62,12.0,-89.81,-0.47,-0.33,0.61,0.55
3.0,156.75,41.75,79.06,156.75,41.75,79.06,0.15,-0.53,0.37,-0.75,3.0,98.06,11.06,-83.75,98.06,11.06,-83.75,-0.49,-0.33,0.57,0.57
3.0,158.38,45.25,73.0,158.38,45.25,73.0,0.14,-0.53,0.32,-0.77,3.0,99.75,9.06,-79.06,99.75,9.06,-79.06,-0.5,-0.32,0.54,0.6
3.0,159.13,48.44,65.94,159.13,48.44,65.94,0.14,-0.53,0.27,-0.79,3.0,102.81,7.63,-76.25,102.81,7.63,-76.25,-0.49,-0.31,0.53,0.62
3.0,160.25,51.56,56.81,160.25,51.56,56.81,0.14,-0.52,0.21,-0.81,3.0,107.06,6.69,-74.62,107.06,6.69,-74.62,-0.46,-0.29,0.53,0.65
3.0,161.38,53.5,48.44,161.38,53.5,48.44,0.14,-0.52,0.19,-0.82,3.0,112.31,6.38,-73.75,112.31,6.38,-73.75,-0.45,-0.27,0.53,0.66
3.0,163.31,55.31,39.75,163.31,55.31,39.75,0.12,-0.51,0.13,-0.84,3.0,119.62,7.19,-74.0,119.62,7.19,-74.0,-0.4,-0.23,0.56,0.69
3.0,164.13,56.5,31.06,164.13,56.5,31.06,0.12,-0.5,0.08,-0.85,3.0,130.0,9.56,-77.81,130.0,9.56,-77.81,-0.33,-0.16,0.61,0.7
3.0,164.75,57.06,23.5,164.75,57.06,23.5,0.11,-0.5,0.06,-0.86,3.0,136.81,11.38,-82.0,136.81,11.38,-82.0,-0.26,-0.09,0.66,0.7
3.0,164.38,57.44,16.94,164.38,57.44,16.94,0.12,-0.49,0.02,-0.86,3.0,143.75,16.62,-90.0,143.75,16.62,-90.0,-0.22,-0.02,0.71,0.67
3.0,163.75,57.81,11.19,163.75,57.81,11.19,0.12,-0.49,-0.01,-0.86,3.0,144.63,19.44,-93.87,144.63,19.44,-93.87,-0.2,0.04,0.74,0.64
3.0,163.19,58.81,5.88,163.19,58.81,5.88,0.13,-0.49,-0.04,-0.86,3.0,145.63,22.37,-98.37,145.63,22.37,-98.37,-0.18,0.09,0.76,0.62
3.0,163.38,58.94,2.0,163.38,58.94,2.0,0.12,-0.49,-0.07,-0.86,3.0,150.0,22.56,-104.81,150.0,22.56,-104.81,-0.15,0.12,0.79,0.58
3.0,163.88,58.31,-5.25,163.88,58.31,-5.25,0.12,-0.48,-0.1,-0.86,3.0,149.75,23.5,-112.12,149.75,23.5,-112.12,-0.15,0.15,0.81,0.54
3.0,164.63,57.25,-9.5,164.63,57.25,-9.5,0.12,-0.47,-0.12,-0.87,3.0,147.06,24.56,-115.37,147.06,24.56,-115.37,-0.16,0.15,0.82,0.53
3.0,165.25,55.94,-13.13,165.25,55.94,-13.13,0.11,-0.45,-0.14,-0.87,3.0,143.56,25.62,-114.62,143.56,25.62,-114.62,-0.17,0.14,0.82,0.53
3.0,165.94,54.38,-17.19,165.94,54.38,-17.19,0.11,-0.44,-0.16,-0.88,3.0,146.25,24.12,-114.12,146.25,24.12,-114.12,-0.16,0.13,0.82,0.54
3.0,166.19,52.88,-19.62,166.19,52.88,-19.62,0.11,-0.43,-0.17,-0.88,3.0,146.38,23.62,-112.75,146.38,23.62,-112.75,-0.17,0.12,0.81,0.55
3.0,166.38,53.44,-18.75,166.38,53.44,-18.75,0.1,-0.44,-0.16,-0.88,3.0,144.5,23.37,-109.87,144.5,23.37,-109.87,-0.18,0.09,0.8,0.56
3.0,166.19,55.75,-16.94,166.19,55.75,-16.94,0.1,-0.46,-0.15,-0.87,3.0,145.19,21.94,-106.69,145.19,21.94,-106.69,-0.19,0.07,0.79,0.59
3.0,166.0,58.44,-14.56,166.0,58.44,-14.56,0.11,-0.48,-0.13,-0.86,3.0,144.38,21.0,-102.69,144.38,21.0,-102.69,-0.19,0.04,0.77,0.61
3.0,165.56,59.69,-9.44,165.56,59.69,-9.44,0.11,-0.49,-0.1,-0.86,3.0,147.56,17.5,-99.62,147.56,17.5,-99.62,-0.18,0.01,0.76,0.63
3.0,164.81,58.88,-3.31,164.81,58.88,-3.31,0.12,-0.48,-0.07,-0.86,3.0,146.88,14.44,-96.75,146.88,14.44,-96.75,-0.19,-0.03,0.75,0.64
3.0,163.56,57.19,1.37,163.56,57.19,1.37,0.13,-0.47,-0.05,-0.87,3.0,143.0,12.38,-94.94,143.0,12.38,-94.94,-0.21,-0.08,0.73,0.64
3.0,161.88,55.81,7.69,161.88,55.81,7.69,0.14,-0.47,-0.02,-0.87,3.0,140.56,9.75,-92.94,140.56,9.75,-92.94,-0.23,-0.12,0.71,0.65
3.0,160.31,55.19,16.69,160.31,55.19,16.69,0.15,-0.48,0.03,-0.86,3.0,140.38,6.94,-91.94,140.38,6.94,-91.94,-0.24,-0.16,0.7,0.65
3.0,159.19,55.5,24.56,159.19,55.5,24.56,0.16,-0.5,0.06,-0.85,3.0,138.38,4.63,-91.5,138.38,4.63,-91.5,-0.25,-0.2,0.69,0.65
3.0,158.44,56.69,33.19,158.44,56.69,33.19,0.16,-0.52,0.09,-0.83,3.0,136.56,3.5,-91.81,136.56,3.5,-91.81,-0.26,-0.23,0.68,0.64
3.0,158.31,58.44,41.25,158.31,58.44,41.25,0.16,-0.55,0.11,-0.81,3.0,134.69,3.31,-93.31,134.69,3.31,-93.31,-0.26,-0.25,0.69,0.63
3.0,158.19,60.5,48.94,158.19,60.5,48.94,0.15,-0.58,0.13,-0.79,3.0,131.81,3.5,-95.94,131.81,3.5,-95.94,-0.28,-0.27,0.7,0.6
3.0,158.0,61.88,55.0,158.0,61.88,55.0,0.15,-0.6,0.14,-0.78,3.0,126.69,3.75,-98.0,126.69,3.75,-98.0,-0.3,-0.31,0.7,0.58
3.0,158.06,62.75,60.06,158.06,62.75,60.06,0.15,-0.61,0.14,-0.77,3.0,123.56,3.0,-100.19,123.56,3.0,-100.19,-0.3,-0.33,0.69,0.56
3.0,158.31,64.06,65.25,158.31,64.06,65.25,0.15,-0.63,0.14,-0.75,3.0,122.62,1.88,-102.06,122.62,1.88,-102.06,-0.3,-0.36,0.69,0.55
3.0,157.88,68.0,62.0,157.88,68.0,62.0,0.15,-0.64,0.07,-0.75,3.0,125.06,-0.88,-104.06,125.06,-0.88,-104.06,-0.27,-0.38,0.69,0.55
3.0,156.94,72.44,56.38,156.94,72.44,56.38,0.15,-0.65,0.02,-0.75,3.0,130.31,-4.56,-105.62,130.31,-4.56,-105.62,-0.24,-0.39,0.69,0.55
3.0,155.94,75.0,51.56,155.94,75.0,51.56,0.16,-0.65,-0.01,-0.74,3.0,137.38,-7.44,-105.19,137.38,-7.44,-105.19,-0.21,-0.38,0.7,0.57
3.0,153.94,74.5,54.19,153.94,74.5,54.19,0.17,-0.65,0.0,-0.74,3.0,144.5,-9.75,-103.75,144.5,-9.75,-103.75,-0.18,-0.36,0.69,0.6
3.0,152.63,72.37,64.75,152.63,72.37,64.75,0.18,-0.66,0.04,-0.73,3.0,148.88,-10.88,-101.94,148.88,-10.88,-101.94,-0.16,-0.34,0.69,0.61
3.0,151.94,71.25,70.31,151.94,71.25,70.31,0.18,-0.67,0.05,-0.72,3.0,154.0,-12.38,-102.62,154.0,-12.38,-102.62,-0.13,-0.34,0.71,0.61
3.0,151.88,70.25,70.31,151.88,70.25,70.31,0.18,-0.66,0.06,-0.73,3.0,160.75,-14.69,-105.75,160.75,-14.69,-105.75,-0.09,-0.33,0.73,0.59
3.0,150.94,66.62,65.25,150.94,66.62,65.25,0.2,-0.63,0.08,-0.75,3.0,165.63,-16.81,-108.69,165.63,-16.81,-108.69,-0.06,-0.34,0.74,0.58
3.0,150.06,66.25,57.0,150.06,66.25,57.0,0.21,-0.62,0.05,-0.76,3.0,171.0,-19.81,-111.94,171.0,-19.81,-111.94,-0.03,-0.36,0.74,0.56
3.0,147.06,63.25,54.13,147.06,63.25,54.13,0.23,-0.6,0.07,-0.76,3.0,177.75,-23.37,-115.69,177.75,-23.37,-115.69,-0.0,-0.38,0.75,0.54
3.0,144.25,59.44,53.5,144.25,59.44,53.5,0.25,-0.58,0.08,-0.77,3.0,181.25,-25.5,-118.25,181.25,-25.5,-118.25,0.01,-0.4,0.75,0.53
3.0,144.25,56.94,56.19,144.25,56.94,56.19,0.25,-0.58,0.11,-0.77,3.0,184.25,-27.69,-120.12,184.25,-27.69,-120.12,0.02,-0.42,0.74,0.52
3.0,144.06,57.19,55.0,144.06,57.19,55.0,0.25,-0.58,0.1,-0.77,3.0,187.31,-28.75,-123.31,187.31,-28.75,-123.31,0.04,-0.43,0.75,0.5
3.0,143.5,57.13,54.69,143.5,57.13,54.69,0.25,-0.58,0.1,-0.77,3.0,191.13,-30.69,-125.87,191.13,-30.69,-125.87,0.06,-0.45,0.74,0.5
3.0,143.19,56.94,54.19,143.19,56.94,54.19,0.26,-0.58,0.09,-0.77,2.0,197.06,-33.81,-127.0,197.06,-33.81,-127.0,0.08,-0.46,0.74,0.49
3.0,143.38,58.19,52.38,143.38,58.19,52.38,0.25,-0.58,0.07,-0.77,2.0,196.5,-32.56,-130.13,196.5,-32.56,-130.13,0.07,-0.46,0.75,0.47
3.0,143.69,60.31,50.19,143.69,60.31,50.19,0.25,-0.58,0.05,-0.77,2.0,199.81,-36.5,-127.31,199.81,-36.5,-127.31,0.09,-0.47,0.71,0.51
3.0,143.75,60.56,50.31,143.75,60.56,50.31,0.25,-0.58,0.05,-0.77,2.0,204.81,-40.19,-127.06,204.81,-40.19,-127.06,0.12,-0.49,0.7,0.51
3.0,144.0,61.31,50.75,144.0,61.31,50.75,0.25,-0.59,0.05,-0.77,2.0,211.75,-45.38,-126.94,211.75,-45.38,-126.94,0.16,-0.5,0.68,0.52
3.0,143.63,62.5,52.13,143.63,62.5,52.13,0.25,-0.6,0.04,-0.76,2.0,217.94,-49.56,-127.56,217.94,-49.56,-127.56,0.19,-0.51,0.66,0.52
3.0,141.19,63.06,52.19,141.19,63.06,52.19,0.27,-0.6,0.02,-0.75,2.0,222.81,-53.19,-128.75,222.81,-53.19,-128.75,0.21,-0.52,0.64,0.52
3.0,138.0,62.81,52.19,138.0,62.81,52.19,0.29,-0.6,0.0,-0.74,2.0,226.19,-56.94,-127.81,226.19,-56.94,-127.81,0.23,-0.53,0.62,0.53
3.0,134.69,66.87,52.81,134.69,66.87,52.81,0.31,-0.62,-0.06,-0.72,2.0,226.0,-58.56,-126.31,226.0,-58.56,-126.31,0.23,-0.53,0.61,0.54
3.0,133.38,70.75,53.38,133.38,70.75,53.38,0.31,-0.63,-0.1,-0.71,2.0,224.69,-58.88,-124.44,224.69,-58.88,-124.44,0.22,-0.53,0.6,0.55
3.0,130.94,73.06,53.31,130.94,73.06,53.31,0.33,-0.63,-0.14,-0.69,2.0,222.06,-57.56,-122.12,222.06,-57.56,-122.12,0.21,-0.52,0.61,0.56
3.0,124.62,74.19,54.44,124.62,74.19,54.44,0.36,-0.63,-0.17,-0.67,2.0,217.56,-55.06,-120.25,217.56,-55.06,-120.25,0.19,-0.52,0.61,0.57
3.0,121.87,74.56,52.5,121.87,74.56,52.5,0.37,-0.62,-0.19,-0.66,2.0,214.88,-54.13,-120.31,214.88,-54.13,-120.31,0.17,-0.53,0.61,0.57
3.0,119.62,75.37,49.38,119.62,75.37,49.38,0.39,-0.61,-0.22,-0.66,2.0,212.63,-53.5,-119.56,212.63,-53.5,-119.56,0.16,-0.53,0.61,0.57
3.0,117.69,77.81,44.31,117.69,77.81,44.31,0.39,-0.6,-0.26,-0.65,2.0,209.94,-53.06,-118.12,209.94,-53.06,-118.12,0.15,-0.53,0.6,0.58
3.0,117.75,80.94,39.5,117.75,80.94,39.5,0.38,-0.59,-0.3,-0.64,3.0,206.38,-51.44,-117.25,206.38,-51.44,-117.25,0.13,-0.53,0.6,0.58
3.0,118.81,82.81,16.5,118.81,82.81,16.5,0.39,-0.58,-0.31,-0.65,3.0,202.0,-49.25,-116.69,202.0,-49.25,-116.69,0.1,-0.53,0.6,0.58
3.0,117.25,80.81,12.25,117.25,80.81,12.25,0.4,-0.56,-0.32,-0.65,3.0,196.5,-46.81,-116.81,196.5,-46.81,-116.81,0.07,-0.54,0.6,0.58
3.0,115.94,80.12,6.94,115.94,80.12,6.94,0.41,-0.55,-0.33,-0.65,3.0,191.19,-44.25,-116.31,191.19,-44.25,-116.31,0.05,-0.54,0.61,0.57
3.0,116.56,79.62,0.94,116.56,79.62,0.94,0.4,-0.55,-0.33,-0.66,3.0,185.44,-40.0,-119.12,185.44,-40.0,-119.12,0.01,-0.54,0.63,0.56
3.0,117.75,79.12,1.69,117.75,79.12,1.69,0.4,-0.55,-0.32,-0.66,3.0,185.88,-42.56,-117.75,185.88,-42.56,-117.75,0.02,-0.55,0.6,0.58
3.0,118.75,79.37,1.37,118.75,79.37,1.37,0.39,-0.55,-0.32,-0.66,3.0,180.94,-40.19,-113.56,180.94,-40.19,-113.56,-0.01,-0.54,0.6,0.59
3.0,118.81,80.31,3.38,118.81,80.31,3.38,0.39,-0.56,-0.32,-0.65,3.0,175.94,-37.63,-112.12,175.94,-37.63,-112.12,-0.03,-0.53,0.6,0.6
3.0,120.19,82.0,8.13,120.19,82.0,8.13,0.35,-0.59,-0.31,-0.66,3.0,172.5,-35.25,-109.12,172.5,-35.25,-109.12,-0.04,-0.52,0.6,0.6
3.0,130.31,84.5,0.25,130.31,84.5,0.25,0.3,-0.62,-0.28,-0.67,3.0,167.81,-31.81,-107.62,167.81,-31.81,-107.62,-0.07,-0.5,0.62,0.6
3.0,135.94,85.94,-1.44,135.94,85.94,-1.44,0.27,-0.63,-0.27,-0.68,3.0,162.38,-27.87,-107.81,162.38,-27.87,-107.81,-0.09,-0.49,0.63,0.6
3.0,137.69,86.31,-1.25,137.69,86.31,-1.25,0.26,-0.63,-0.25,-0.68,3.0,150.81,-19.0,-109.87,150.81,-19.0,-109.87,-0.17,-0.45,0.68,0.55
3.0,138.81,84.44,0.56,138.81,84.44,0.56,0.26,-0.63,-0.22,-0.7,3.0,138.31,-9.94,-111.81,138.31,-9.94,-111.81,-0.21,-0.43,0.71,0.52
3.0,140.06,81.0,21.19,140.06,81.0,21.19,0.26,-0.62,-0.17,-0.72,3.0,132.81,-5.63,-113.31,132.81,-5.63,-113.31,-0.22,-0.41,0.72,0.5
3.0,138.75,78.19,29.75,138.75,78.19,29.75,0.28,-0.62,-0.16,-0.72,3.0,127.19,-3.06,-114.37,127.19,-3.06,-114.37,-0.24,-0.42,0.73,0.49
3.0,133.56,77.81,32.5,133.56,77.81,32.5,0.32,-0.61,-0.2,-0.7,3.0,123.31,-0.81,-113.37,123.31,-0.81,-113.37,-0.26,-0.41,0.73,0.48
3.0,127.62,77.56,32.88,127.62,77.56,32.88,0.35,-0.6,-0.22,-0.69,3.0,103.06,10.56,-110.81,103.06,10.56,-110.81,-0.35,-0.37,0.73,0.45
3.0,124.94,78.19,29.69,124.94,78.19,29.69,0.36,-0.59,-0.24,-0.68,3.0,87.5,19.37,-113.06,87.5,19.37,-113.06,-0.41,-0.35,0.75,0.39
3.0,124.31,79.44,21.75,124.31,79.44,21.75,0.36,-0.59,-0.27,-0.67,3.0,91.19,17.31,-118.31,91.19,17.31,-118.31,-0.37,-0.36,0.77,0.37
3.0,122.06,78.62,21.12,122.06,78.62,21.12,0.38,-0.57,-0.26,-0.68,3.0,94.44,14.88,-120.06,94.44,14.88,-120.06,-0.34,-0.37,0.78,0.37
3.0,121.81,71.69,23.75,121.81,71.69,23.75,0.41,-0.54,-0.19,-0.71,3.0,87.5,17.19,-122.56,87.5,17.19,-122.56,-0.36,-0.39,0.79,0.32
3.0,116.25,59.75,30.56,116.25,59.75,30.56,0.45,-0.5,-0.11,-0.73,3.0,66.62,24.12,-129.13,66.62,24.12,-129.13,-0.38,-0.4,0.79,0.25
3.0,118.62,56.19,30.31,118.62,56.19,30.31,0.44,-0.49,-0.12,-0.74,3.0,66.81,23.31,-131.0,66.81,23.31,-131.0,-0.37,-0.4,0.8,0.25
3.0,117.44,56.81,25.06,117.44,56.81,25.06,0.45,-0.48,-0.14,-0.74,3.0,69.56,22.12,-130.31,69.56,22.12,-130.31,-0.37,-0.41,0.79,0.26
3.0,116.44,57.38,20.25,116.44,57.38,20.25,0.46,-0.47,-0.17,-0.74,3.0,72.62,19.87,-130.88,72.62,19.87,-130.88,-0.35,-0.42,0.79,0.26
3.0,116.31,58.31,15.44,116.31,58.31,15.44,0.45,-0.46,-0.19,-0.74,3.0,78.06,16.87,-132.63,78.06,16.87,-132.63,-0.31,-0.44,0.8,0.27
3.0,119.06,57.94,10.94,119.06,57.94,10.94,0.44,-0.44,-0.2,-0.76,3.0,87.44,12.81,-134.81,87.44,12.81,-134.81,-0.28,-0.44,0.81,0.27
3.0,121.62,56.94,6.81,121.62,56.94,6.81,0.43,-0.43,-0.21,-0.77,3.0,93.62,10.19,-135.81,93.62,10.19,-135.81,-0.25,-0.45,0.81,0.29
3.0,122.44,56.38,1.81,122.44,56.38,1.81,0.42,-0.41,-0.22,-0.77,3.0,298.63,4.88,-136.0,298.63,4.88,-136.0,-0.22,-0.48,0.8,0.3
3.0,122.56,54.63,-0.06,122.56,54.63,-0.06,0.43,-0.4,-0.22,-0.78,3.0,298.5,4.94,-137.13,298.5,4.94,-137.13,-0.23,-0.48,0.8,0.29
3.0,122.25,53.38,2.31,122.25,53.38,2.31,0.43,-0.41,-0.2,-0.78,3.0,297.81,4.75,-137.94,297.81,4.75,-137.94,-0.22,-0.49,0.8,0.28
3.0,121.44,54.69,3.56,121.44,54.69,3.56,0.44,-0.41,-0.21,-0.77,3.0,297.44,3.5,-139.19,297.44,3.5,-139.19,-0.2,-0.49,0.8,0.28
3.0,119.81,55.44,4.38,119.81,55.44,4.38,0.45,-0.41,-0.21,-0.76,3.0,297.75,0.94,-141.13,297.75,0.94,-141.13,-0.18,-0.48,0.81,0.28
3.0,118.94,55.25,3.63,118.94,55.25,3.63,0.45,-0.41,-0.22,-0.76,3.0,297.88,-0.75,-141.88,297.88,-0.75,-141.88,-0.15,-0.49,0.81,0.29
3.0,119.94,54.5,2.5,119.94,54.5,2.5,0.44,-0.4,-0.22,-0.77,3.0,296.38,-5.13,-143.5,296.38,-5.13,-143.5,-0.12,-0.5,0.81,0.29
3.0,120.75,53.31,2.69,120.75,53.31,2.69,0.44,-0.4,-0.21,-0.78,3.0,296.56,-6.0,-146.06,296.56,-6.0,-146.06,-0.1,-0.5,0.81,0.27
3.0,121.12,52.0,2.94,121.12,52.0,2.94,0.44,-0.39,-0.2,-0.78,3.0,296.13,-10.13,-148.75,296.13,-10.13,-148.75,-0.04,-0.51,0.81,0.28
3.0,121.37,50.56,2.63,121.37,50.56,2.63,0.44,-0.38,-0.19,-0.79,3.0,294.88,-17.19,-151.0,294.88,-17.19,-151.0,0.03,-0.52,0.8,0.3
3.0,121.5,49.13,2.19,121.5,49.13,2.19,0.44,-0.37,-0.19,-0.79,3.0,294.19,-25.87,-151.75,294.19,-25.87,-151.75,0.07,-0.51,0.8,0.31
3.0,121.81,48.13,2.63,121.81,48.13,2.63,0.44,-0.36,-0.18,-0.8,3.0,291.81,-32.56,-151.38,291.81,-32.56,-151.38,0.12,-0.52,0.77,0.34
3.0,122.0,47.63,3.06,122.0,47.63,3.06,0.44,-0.36,-0.18,-0.8,3.0,222.69,-41.69,-146.0,222.69,-41.69,-146.0,0.16,-0.54,0.72,0.41
3.0,122.56,47.25,3.75,122.56,47.25,3.75,0.44,-0.36,-0.17,-0.8,3.0,229.31,-46.69,-146.75,229.31,-46.69,-146.75,0.19,-0.55,0.7,0.42
3.0,123.0,47.13,4.69,123.0,47.13,4.69,0.44,-0.37,-0.16,-0.81,3.0,235.56,-50.75,-148.31,235.56,-50.75,-148.31,0.24,-0.55,0.67,0.43
3.0,123.31,47.0,5.19,123.31,47.0,5.19,0.43,-0.37,-0.16,-0.81,3.0,242.69,-55.81,-150.0,242.69,-55.81,-150.0,0.28,-0.55,0.65,0.44
3.0,123.37,47.06,4.38,123.37,47.06,4.38,0.43,-0.36,-0.17,-0.81,3.0,251.44,-63.06,-150.38,251.44,-63.06,-150.38,0.32,-0.54,0.64,0.45
3.0,123.37,47.38,3.56,123.37,47.38,3.56,0.43,-0.37,-0.17,-0.81,3.0,254.81,-66.31,-150.63,254.81,-66.31,-150.63,0.36,-0.53,0.62,0.46
3.0,123.37,48.0,3.31,123.37,48.0,3.31,0.43,-0.37,-0.17,-0.8,3.0,258.44,-70.37,-150.25,258.44,-70.37,-150.25,0.38,-0.52,0.61,0.46
3.0,123.62,48.5,3.44,123.62,48.5,3.44,0.43,-0.37,-0.17,-0.8,3.0,260.13,-73.37,-147.44,260.13,-73.37,-147.44,0.4,-0.51,0.59,0.48
3.0,123.94,48.81,3.13,123.94,48.81,3.13,0.43,-0.37,-0.18,-0.8,3.0,259.19,-74.81,-141.69,259.19,-74.81,-141.69,0.4,-0.51,0.59,0.49
3.0,124.37,48.88,1.88,124.37,48.88,1.88,0.42,-0.37,-0.19,-0.81,3.0,255.56,-73.0,-135.5,255.56,-73.0,-135.5,0.38,-0.5,0.6,0.5
3.0,124.56,48.44,0.0,124.56,48.44,0.0,0.42,-0.36,-0.19,-0.81,3.0,249.88,-68.37,-130.75,249.88,-68.37,-130.75,0.34,-0.48,0.63,0.51
3.0,124.5,47.75,-2.38,124.5,47.75,-2.38,0.43,-0.35,-0.21,-0.81,3.0,245.38,-63.44,-127.94,245.38,-63.44,-127.94,0.32,-0.46,0.65,0.5
3.0,124.25,47.13,-4.75,124.25,47.13,-4.75,0.43,-0.34,-0.22,-0.81,3.0,245.0,-61.56,-129.69,245.0,-61.56,-129.69,0.32,-0.46,0.67,0.49
3.0,124.37,46.63,-5.81,124.37,46.63,-5.81,0.43,-0.33,-0.22,-0.81,3.0,247.06,-60.75,-132.56,247.06,-60.75,-132.56,0.32,-0.45,0.68,0.48
3.0,124.5,46.5,-6.31,124.5,46.5,-6.31,0.43,-0.33,-0.22,-0.81,3.0,250.56,-60.56,-135.19,250.56,-60.56,-135.19,0.33,-0.44,0.69,0.46
3.0,124.5,46.38,-6.94,124.5,46.38,-6.94,0.43,-0.33,-0.23,-0.81,3.0,254.69,-61.31,-136.63,254.69,-61.31,-136.63,0.35,-0.43,0.7,0.45
3.0,123.94,46.19,-8.25,123.94,46.19,-8.25,0.43,-0.32,-0.24,-0.81,3.0,258.06,-62.94,-136.0,258.06,-62.94,-136.0,0.37,-0.42,0.69,0.45
3.0,123.0,45.88,-9.63,123.0,45.88,-9.63,0.44,-0.31,-0.25,-0.8,3.0,259.38,-64.62,-133.31,259.38,-64.62,-133.31,0.38,-0.42,0.68,0.46
3.0,120.87,46.19,-9.69,120.87,46.19,-9.69,0.46,-0.31,-0.25,-0.79,3.0,259.88,-65.81,-131.31,259.88,-65.81,-131.31,0.39,-0.41,0.68,0.46
3.0,118.81,46.63,-9.63,118.81,46.63,-9.63,0.47,-0.31,-0.26,-0.79,3.0,260.5,-66.25,-130.88,260.5,-66.25,-130.88,0.39,-0.41,0.68,0.46
3.0,117.62,46.69,-10.69,117.62,46.69,-10.69,0.48,-0.3,-0.27,-0.78,3.0,261.31,-66.87,-130.06,261.31,-66.87,-130.06,0.4,-0.41,0.68,0.46
3.0,116.81,46.44,-11.94,116.81,46.44,-11.94,0.48,-0.29,-0.28,-0.78,3.0,262.19,-67.19,-129.88,262.19,-67.19,-129.88,0.4,-0.41,0.68,0.46
3.0,116.5,46.06,-13.06,116.5,46.06,-13.06,0.48,-0.29,-0.28,-0.78,3.0,263.31,-67.81,-128.94,263.31,-67.81,-128.94,0.41,-0.4,0.67,0.46
3.0,116.87,45.81,-12.56,116.87,45.81,-12.56,0.48,-0.29,-0.27,-0.78,3.0,264.81,-68.81,-127.5,264.81,-68.81,-127.5,0.42,-0.4,0.67,0.46
3.0,117.94,46.19,-11.63,117.94,46.19,-11.63,0.47,-0.31,-0.26,-0.79,3.0,264.69,-68.69,-127.56,264.69,-68.69,-127.56,0.42,-0.4,0.67,0.46
3.0,119.44,47.13,-9.25,119.44,47.13,-9.25,0.46,-0.32,-0.25,-0.79,3.0,262.94,-68.0,-128.19,262.94,-68.0,-128.19,0.41,-0.41,0.67,0.47
3.0,120.31,47.69,-7.31,120.31,47.69,-7.31,0.45,-0.33,-0.24,-0.79,3.0,259.69,-67.25,-127.94,259.69,-67.25,-127.94,0.39,-0.42,0.67,0.48
3.0,120.69,47.94,-6.5,120.69,47.94,-6.5,0.45,-0.33,-0.24,-0.79,3.0,256.19,-66.37,-127.5,256.19,-66.37,-127.5,0.38,-0.43,0.66,0.49
3.0,120.87,48.0,-6.25,120.87,48.0,-6.25,0.45,-0.33,-0.24,-0.79,3.0,254.63,-66.56,-125.69,254.63,-66.56,-125.69,0.38,-0.43,0.65,0.49
3.0,121.0,48.0,-6.06,121.0,48.0,-6.06,0.45,-0.34,-0.23,-0.79,3.0,255.0,-67.31,-123.56,255.0,-67.31,-123.56,0.39,-0.43,0.65,0.5
3.0,121.06,48.06,-5.81,121.06,48.06,-5.81,0.45,-0.34,-0.23,-0.79,3.0,256.56,-69.19,-118.94,256.56,-69.19,-118.94,0.41,-0.42,0.63,0.51
3.0,121.19,48.25,-5.38,121.19,48.25,-5.38,0.45,-0.34,-0.23,-0.79,3.0,257.0,-71.37,-111.37,257.0,-71.37,-111.37,0.42,-0.42,0.61,0.53
3.0,121.25,48.56,-4.5,121.25,48.56,-4.5,0.45,-0.35,-0.23,-0.79,3.0,255.75,-71.81,-105.87,255.75,-71.81,-105.87,0.41,-0.42,0.61,0.54
3.0,121.37,48.81,-3.81,121.37,48.81,-3.81,0.45,-0.35,-0.22,-0.79,3.0,254.19,-71.44,-105.12,254.19,-71.44,-105.12,0.41,-0.42,0.6,0.54
3.0,121.5,48.94,-3.44,121.5,48.94,-3.44,0.44,-0.35,-0.22,-0.79,3.0,252.75,-71.12,-105.0,252.75,-71.12,-105.0,0.4,-0.43,0.6,0.55
3.0,121.5,48.81,-3.69,121.5,48.81,-3.69,0.44,-0.35,-0.22,-0.79,3.0,252.19,-71.37,-103.94,252.19,-71.37,-103.94,0.4,-0.43,0.59,0.55
3.0,121.56,48.5,-4.44,121.56,48.5,-4.44,0.44,-0.34,-0.23,-0.8,3.0,252.56,-71.87,-101.19,252.56,-71.87,-101.19,0.41,-0.43,0.59,0.55
3.0,121.56,48.19,-5.5,121.56,48.19,-5.5,0.44,-0.34,-0.23,-0.8,3.0,253.0,-72.25,-98.56,253.0,-72.25,-98.56,0.41,-0.42,0.58,0.56
3.0,121.56,48.0,-6.25,121.56,48.0,-6.25,0.45,-0.34,-0.23,-0.8,3.0,253.69,-72.69,-96.06,253.69,-72.69,-96.06,0.42,-0.42,0.58,0.56
3.0,121.62,48.0,-6.5,121.62,48.0,-6.5,0.44,-0.34,-0.24,-0.8,3.0,254.38,-73.06,-93.44,254.38,-73.06,-93.44,0.43,-0.42,0.58,0.56
3.0,121.62,47.94,-6.75,121.62,47.94,-6.75,0.44,-0.33,-0.24,-0.8,3.0,255.06,-73.31,-91.56,255.06,-73.31,-91.56,0.43,-0.42,0.58,0.56
3.0,121.56,47.94,-7.13,121.56,47.94,-7.13,0.45,-0.33,-0.24,-0.8,3.0,255.81,-73.31,-90.31,255.81,-73.31,-90.31,0.44,-0.41,0.58,0.56
3.0,121.56,47.94,-7.31,121.56,47.94,-7.31,0.45,-0.33,-0.24,-0.8,3.0,257.13,-73.56,-87.81,257.13,-73.56,-87.81,0.44,-0.4,0.58,0.56
3.0,121.5,48.0,-7.38,121.5,48.0,-7.38,0.45,-0.33,-0.24,-0.8,3.0,258.56,-73.87,-84.75,258.56,-73.87,-84.75,0.45,-0.4,0.57,0.55
3.0,121.5,48.19,-7.19,121.5,48.19,-7.19,0.44,-0.34,-0.24,-0.8,3.0,259.31,-73.81,-83.25,259.31,-73.81,-83.25,0.46,-0.39,0.57,0.55
3.0,121.62,48.38,-6.75,121.62,48.38,-6.75,0.44,-0.34,-0.24,-0.8,3.0,259.44,-73.69,-82.5,259.44,-73.69,-82.5,0.46,-0.39,0.57,0.55
3.0,121.81,48.44,-6.13,121.81,48.44,-6.13,0.44,-0.34,-0.23,-0.8,3.0,259.38,-73.69,-82.06,259.38,-73.69,-82.06,0.46,-0.39,0.57,0.55
3.0,121.94,48.44,-5.69,121.94,48.44,-5.69,0.44,-0.34,-0.23,-0.8,3.0,259.31,-73.75,-81.87,259.31,-73.75,-81.87,0.46,-0.39,0.57,0.55
3.0,121.94,48.31,-5.5,121.94,48.31,-5.5,0.44,-0.34,-0.23,-0.8,3.0,259.56,-73.87,-80.69,259.56,-73.87,-80.69,0.46,-0.39,0.57,0.56
3.0,121.87,48.25,-5.44,121.87,48.25,-5.44,0.44,-0.34,-0.23,-0.8,3.0,259.69,-74.0,-78.06,259.69,-74.0,-78.06,0.47,-0.39,0.57,0.56
3.0,121.75,48.38,-5.44,121.75,48.38,-5.44,0.44,-0.34,-0.23,-0.8,3.0,259.81,-74.0,-76.06,259.81,-74.0,-76.06,0.47,-0.39,0.56,0.56
3.0,121.75,48.75,-5.19,121.75,48.75,-5.19,0.44,-0.35,-0.23,-0.79,3.0,259.88,-73.87,-74.56,259.88,-73.87,-74.56,0.47,-0.39,0.56,0.56
3.0,121.81,49.06,-4.63,121.81,49.06,-4.63,0.44,-0.35,-0.23,-0.79,3.0,259.69,-73.75,-73.81,259.69,-73.75,-73.81,0.47,-0.39,0.56,0.56
3.0,121.87,49.38,-3.94,121.87,49.38,-3.94,0.44,-0.36,-0.22,-0.79,3.0,259.44,-73.87,-73.62,259.44,-73.87,-73.62,0.47,-0.39,0.56,0.56
3.0,122.0,49.75,-3.25,122.0,49.75,-3.25,0.44,-0.36,-0.22,-0.79,3.0,259.25,-74.0,-72.81,259.25,-74.0,-72.81,0.47,-0.39,0.55,0.57
3.0,122.06,50.06,-2.81,122.06,50.06,-2.81,0.44,-0.36,-0.22,-0.79,3.0,259.06,-74.12,-72.44,259.06,-74.12,-72.44,0.47,-0.39,0.55,0.57
3.0,122.06,50.31,-2.38,122.06,50.31,-2.38,0.44,-0.37,-0.22,-0.79,3.0,258.81,-74.19,-72.25,258.81,-74.19,-72.25,0.47,-0.39,0.55,0.57
3.0,122.19,50.63,-2.0,122.19,50.63,-2.0,0.44,-0.37,-0.22,-0.79,3.0,258.75,-74.19,-72.06,258.75,-74.19,-72.06,0.47,-0.39,0.55,0.57
3.0,122.25,50.75,-1.81,122.25,50.75,-1.81,0.44,-0.37,-0.22,-0.79,3.0,259.13,-74.06,-70.5,259.13,-74.06,-70.5,0.47,-0.39,0.55,0.57
3.0,122.25,50.81,-1.69,122.25,50.81,-1.69,0.44,-0.37,-0.22,-0.79,3.0,259.5,-74.0,-68.56,259.5,-74.0,-68.56,0.47,-0.39,0.55,0.57
3.0,122.25,50.75,-1.63,122.25,50.75,-1.63,0.44,-0.37,-0.22,-0.79,3.0,259.75,-73.94,-67.31,259.75,-73.94,-67.31,0.48,-0.38,0.55,0.57
3.0,122.31,50.75,-1.44,122.31,50.75,-1.44,0.44,-0.37,-0.21,-0.79,3.0,259.94,-73.87,-66.94,259.94,-73.87,-66.94,0.48,-0.38,0.55,0.57
3.0,122.37,50.69,-1.19,122.37,50.69,-1.19,0.44,-0.37,-0.21,-0.79,3.0,259.81,-73.81,-67.37,259.81,-73.81,-67.37,0.48,-0.38,0.55,0.57
3.0,122.44,50.63,-1.06,122.44,50.63,-1.06,0.43,-0.37,-0.21,-0.79,3.0,259.44,-73.81,-68.5,259.44,-73.81,-68.5,0.47,-0.39,0.55,0.57
3.0,122.5,50.63,-0.94,122.5,50.63,-0.94,0.43,-0.37,-0.21,-0.79,3.0,259.06,-73.81,-69.81,259.06,-73.81,-69.81,0.47,-0.39,0.55,0.57
3.0,122.56,50.63,-0.88,122.56,50.63,-0.88,0.43,-0.37,-0.21,-0.79,3.0,258.56,-73.69,-71.75,258.56,-73.69,-71.75,0.47,-0.39,0.55,0.57
3.0,122.62,50.63,-0.81,122.62,50.63,-0.81,0.43,-0.37,-0.21,-0.79,3.0,258.44,-73.56,-71.69,258.44,-73.56,-71.69,0.47,-0.39,0.55,0.57
3.0,122.62,50.63,-0.75,122.62,50.63,-0.75,0.43,-0.37,-0.21,-0.79,3.0,258.19,-73.56,-71.25,258.19,-73.56,-71.25,0.46,-0.39,0.55,0.57
3.0,122.69,50.69,-0.69,122.69,50.69,-0.69,0.43,-0.37,-0.21,-0.79,3.0,255.13,-72.25,-76.5,255.13,-72.25,-76.5,0.44,-0.39,0.56,0.58
3.0,122.69,50.75,-0.69,122.69,50.75,-0.69,0.43,-0.37,-0.21,-0.79,3.0,252.69,-71.06,-80.94,252.69,-71.06,-80.94,0.43,-0.4,0.57,0.58
3.0,122.69,50.81,-0.88,122.69,50.81,-0.88,0.43,-0.37,-0.21,-0.79,3.0,251.63,-70.62,-82.81,251.63,-70.62,-82.81,0.42,-0.4,0.57,0.59
3.0,122.69,50.88,-0.94,122.69,50.88,-0.94,0.43,-0.37,-0.21,-0.79,3.0,250.88,-70.25,-84.87,250.88,-70.25,-84.87,0.41,-0.4,0.57,0.58
3.0,122.69,50.94,-0.81,122.69,50.94,-0.81,0.43,-0.38,-0.21,-0.79,3.0,249.75,-69.56,-87.12,249.75,-69.56,-87.12,0.41,-0.4,0.58,0.59
3.0,122.75,51.0,-0.63,122.75,51.0,-0.63,0.43,-0.38,-0.21,-0.79,3.0,248.88,-68.87,-87.94,248.88,-68.87,-87.94,0.4,-0.4,0.58,0.59
3.0,122.81,51.06,-0.5,122.81,51.06,-0.5,0.43,-0.38,-0.21,-0.79,3.0,248.94,-68.62,-87.19,248.94,-68.62,-87.19,0.41,-0.39,0.58,0.59
3.0,122.87,51.13,-0.37,122.87,51.13,-0.37,0.43,-0.38,-0.21,-0.79,3.0,249.38,-68.69,-85.62,249.38,-68.69,-85.62,0.41,-0.39,0.58,0.59
3.0,122.94,51.19,-0.31,122.94,51.19,-0.31,0.43,-0.38,-0.21,-0.79,3.0,249.56,-68.5,-84.56,249.56,-68.5,-84.56,0.41,-0.39,0.58,0.59
3.0,123.0,51.13,-0.06,123.0,51.13,-0.06,0.43,-0.38,-0.21,-0.79,3.0,250.0,-68.62,-83.12,250.0,-68.62,-83.12,0.42,-0.38,0.57,0.59
3.0,123.06,51.13,0.0,123.06,51.13,0.0,0.43,-0.38,-0.21,-0.79,3.0,250.38,-68.69,-81.62,250.38,-68.69,-81.62,0.42,-0.38,0.57,0.59
3.0,123.12,51.13,0.06,123.12,51.13,0.06,0.43,-0.38,-0.2,-0.79,3.0,251.13,-68.87,-79.56,251.13,-68.87,-79.56,0.43,-0.38,0.57,0.59
3.0,123.19,51.25,0.25,123.19,51.25,0.25,0.43,-0.38,-0.2,-0.79,3.0,252.5,-69.19,-76.62,252.5,-69.19,-76.62,0.44,-0.37,0.56,0.59
3.0,123.25,51.31,0.37,123.25,51.31,0.37,0.43,-0.38,-0.2,-0.79,3.0,254.06,-69.94,-72.12,254.06,-69.94,-72.12,0.45,-0.37,0.55,0.59
3.0,123.31,51.38,0.44,123.31,51.38,0.44,0.43,-0.38,-0.2,-0.79,3.0,254.88,-70.37,-68.31,254.88,-70.37,-68.31,0.46,-0.37,0.55,0.6
3.0,123.31,51.44,0.5,123.31,51.44,0.5,0.43,-0.38,-0.2,-0.79,3.0,255.0,-70.56,-67.81,255.0,-70.56,-67.81,0.46,-0.37,0.55,0.6
3.0,123.25,51.5,0.44,123.25,51.5,0.44,0.43,-0.38,-0.2,-0.79,3.0,254.38,-70.44,-69.62,254.38,-70.44,-69.62,0.45,-0.38,0.55,0.59
3.0,123.25,51.56,0.44,123.25,51.56,0.44,0.43,-0.38,-0.2,-0.79,3.0,254.0,-70.44,-70.87,254.0,-70.44,-70.87,0.45,-0.38,0.55,0.59
3.0,123.31,51.56,0.37,123.31,51.56,0.37,0.43,-0.38,-0.2,-0.79,3.0,253.88,-70.5,-70.62,253.88,-70.5,-70.62,0.45,-0.38,0.55,0.6
3.0,123.31,51.56,0.37,123.31,51.56,0.37,0.43,-0.38,-0.2,-0.79,3.0,253.81,-70.56,-70.06,253.81,-70.56,-70.06,0.45,-0.38,0.55,0.6
3.0,123.31,51.56,0.31,123.31,51.56,0.31,0.43,-0.38,-0.2,-0.79,3.0,253.63,-70.5,-70.25,253.63,-70.5,-70.25,0.45,-0.38,0.55,0.6
3.0,123.31,51.56,0.31,123.31,51.56,0.31,0.43,-0.38,-0.2,-0.79,3.0,253.69,-70.5,-70.06,253.69,-70.5,-70.06,0.45,-0.38,0.55,0.6
3.0,123.31,51.63,0.37,123.31,51.63,0.37,0.43,-0.38,-0.2,-0.79,3.0,253.75,-70.5,-69.69,253.75,-70.5,-69.69,0.45,-0.38,0.55,0.6
3.0,123.31,51.69,0.44,123.31,51.69,0.44,0.43,-0.39,-0.2,-0.79,3.0,253.69,-70.5,-70.0,253.69,-70.5,-70.0,0.45,-0.38,0.55,0.6
3.0,123.37,51.81,0.5,123.37,51.81,0.5,0.43,-0.39,-0.2,-0.79,3.0,253.31,-70.44,-71.19,253.31,-70.44,-71.19,0.44,-0.38,0.55,0.6
3.0,123.44,51.81,0.5,123.44,51.81,0.5,0.43,-0.39,-0.2,-0.79,3.0,252.75,-70.31,-73.0,252.75,-70.31,-73.0,0.44,-0.38,0.55,0.6
3.0,123.5,51.88,0.5,123.5,51.88,0.5,0.43,-0.39,-0.2,-0.79,3.0,252.63,-70.37,-73.25,252.63,-70.37,-73.25,0.44,-0.38,0.55,0.6
3.0,123.62,51.88,0.37,123.62,51.88,0.37,0.42,-0.39,-0.2,-0.79,3.0,252.5,-70.31,-73.19,252.5,-70.31,-73.19,0.44,-0.38,0.55,0.6
3.0,123.69,51.81,0.25,123.69,51.81,0.25,0.42,-0.39,-0.2,-0.79,3.0,252.25,-70.0,-74.31,252.25,-70.0,-74.31,0.44,-0.38,0.55,0.6
3.0,123.69,51.75,0.25,123.69,51.75,0.25,0.42,-0.39,-0.2,-0.79,3.0,252.06,-69.87,-74.94,252.06,-69.87,-74.94,0.43,-0.38,0.56,0.6
3.0,123.75,51.69,0.31,123.75,51.69,0.31,0.42,-0.39,-0.2,-0.79,3.0,252.19,-69.81,-75.56,252.19,-69.81,-75.56,0.43,-0.38,0.56,0.59
3.0,123.75,51.63,0.31,123.75,51.63,0.31,0.42,-0.39,-0.2,-0.79,3.0,252.19,-69.94,-75.87,252.19,-69.94,-75.87,0.43,-0.38,0.56,0.59
3.0,123.75,51.63,0.25,123.75,51.63,0.25,0.42,-0.39,-0.2,-0.79,3.0,251.81,-70.19,-75.81,251.81,-70.19,-75.81,0.43,-0.39,0.56,0.6
3.0,123.75,51.63,0.19,123.75,51.63,0.19,0.42,-0.38,-0.2,-0.79,3.0,250.94,-70.25,-76.94,250.94,-70.25,-76.94,0.42,-0.39,0.55,0.6
3.0,123.75,51.56,0.19,123.75,51.56,0.19,0.42,-0.38,-0.2,-0.79,3.0,250.19,-70.31,-76.87,250.19,-70.31,-76.87,0.42,-0.4,0.55,0.6
3.0,123.75,51.56,0.12,123.75,51.56,0.12,0.42,-0.38,-0.2,-0.79,3.0,249.63,-70.19,-75.87,249.63,-70.19,-75.87,0.42,-0.4,0.55,0.61
3.0,123.75,51.5,0.06,123.75,51.5,0.06,0.42,-0.38,-0.2,-0.79,3.0,249.31,-69.94,-75.37,249.31,-69.94,-75.37,0.42,-0.39,0.55,0.61
3.0,123.75,51.44,0.0,123.75,51.44,0.0,0.42,-0.38,-0.2,-0.79,3.0,249.5,-69.69,-75.06,249.5,-69.69,-75.06,0.42,-0.39,0.55,0.61
3.0,123.75,51.38,0.0,123.75,51.38,0.0,0.42,-0.38,-0.2,-0.79,3.0,249.69,-69.62,-75.56,249.69,-69.62,-75.56,0.42,-0.39,0.55,0.6
3.0,123.81,51.38,0.0,123.81,51.38,0.0,0.42,-0.38,-0.2,-0.8,3.0,249.44,-69.5,-76.56,249.44,-69.5,-76.56,0.42,-0.39,0.55,0.6
3.0,123.87,51.38,0.06,123.87,51.38,0.06,0.42,-0.38,-0.2,-0.8,3.0,249.19,-69.44,-77.12,249.19,-69.44,-77.12,0.42,-0.39,0.55,0.6
3.0,123.87,51.38,0.12,123.87,51.38,0.12,0.42,-0.38,-0.2,-0.8,3.0,249.19,-69.37,-77.19,249.19,-69.37,-77.19,0.42,-0.39,0.55,0.6
3.0,123.87,51.31,0.12,123.87,51.31,0.12,0.42,-0.38,-0.2,-0.8,3.0,249.31,-69.37,-77.25,249.31,-69.37,-77.25,0.42,-0.39,0.56,0.6
3.0,123.87,51.25,0.19,123.87,51.25,0.19,0.42,-0.38,-0.2,-0.8,3.0,249.25,-69.25,-77.87,249.25,-69.25,-77.87,0.42,-0.39,0.56,0.6
3.0,123.87,51.19,0.19,123.87,51.19,0.19,0.42,-0.38,-0.2,-0.8,3.0,249.25,-69.19,-78.31,249.25,-69.19,-78.31,0.42,-0.39,0.56,0.6
3.0,123.94,51.19,0.19,123.94,51.19,0.19,0.42,-0.38,-0.2,-0.8,3.0,249.31,-69.19,-78.56,249.31,-69.19,-78.56,0.42,-0.39,0.56,0.6
3.0,123.94,51.19,0.25,123.94,51.19,0.25,0.42,-0.38,-0.2,-0.8,3.0,249.19,-69.19,-78.87,249.19,-69.19,-78.87,0.41,-0.39,0.56,0.6
3.0,123.94,51.25,0.25,123.94,51.25,0.25,0.42,-0.38,-0.2,-0.8,3.0,249.0,-69.19,-79.31,249.0,-69.19,-79.31,0.41,-0.39,0.56,0.6
3.0,123.94,51.25,0.31,123.94,51.25,0.31,0.42,-0.38,-0.2,-0.8,3.0,249.0,-69.12,-79.31,249.0,-69.12,-79.31,0.41,-0.39,0.56,0.6
3.0,123.94,51.25,0.31,123.94,51.25,0.31,0.42,-0.38,-0.2,-0.8,3.0,249.0,-69.12,-79.56,249.0,-69.12,-79.56,0.41,-0.39,0.56,0.6
3.0,123.94,51.25,0.31,123.94,51.25,0.31,0.42,-0.38,-0.2,-0.8,3.0,248.94,-68.94,-79.87,248.94,-68.94,-79.87,0.41,-0.39,0.56,0.6
3.0,123.94,51.25,0.25,123.94,51.25,0.25,0.42,-0.38,-0.2,-0.8,3.0,249.0,-68.87,-79.87,249.0,-68.87,-79.87,0.41,-0.39,0.56,0.6
3.0,123.94,51.19,0.25,123.94,51.19,0.25,0.42,-0.38,-0.2,-0.8,3.0,249.0,-68.87,-79.87,249.0,-68.87,-79.87,0.41,-0.39,0.56,0.6
3.0,123.94,51.19,0.25,123.94,51.19,0.25,0.42,-0.38,-0.2,-0.8,3.0,248.94,-68.87,-79.94,248.94,-68.87,-79.94,0.41,-0.39,0.56,0.6
3.0,123.94,51.13,0.25,123.94,51.13,0.25,0.42,-0.38,-0.2,-0.8,3.0,248.88,-68.5,-79.06,248.88,-68.5,-79.06,0.41,-0.38,0.56,0.6
3.0,123.94,51.13,0.25,123.94,51.13,0.25,0.42,-0.38,-0.2,-0.8,3.0,248.75,-67.94,-78.31,248.75,-67.94,-78.31,0.41,-0.38,0.56,0.61
3.0,123.94,51.13,0.25,123.94,51.13,0.25,0.42,-0.38,-0.2,-0.8,3.0,248.31,-67.37,-78.44,248.31,-67.37,-78.44,0.41,-0.38,0.57,0.61
3.0,123.94,51.13,0.25,123.94,51.13,0.25,0.42,-0.38,-0.2,-0.8,3.0,247.63,-66.94,-79.31,247.63,-66.94,-79.31,0.41,-0.38,0.57,0.61
3.0,123.94,51.13,0.25,123.94,51.13,0.25,0.42,-0.38,-0.2,-0.8,3.0,247.19,-66.75,-80.31,247.19,-66.75,-80.31,0.4,-0.38,0.57,0.61
3.0,123.94,51.13,0.31,123.94,51.13,0.31,0.42,-0.38,-0.2,-0.8,3.0,246.88,-66.62,-81.37,246.88,-66.62,-81.37,0.4,-0.38,0.57,0.61
3.0,123.94,51.06,0.25,123.94,51.06,0.25,0.42,-0.38,-0.2,-0.8,3.0,246.56,-66.5,-82.37,246.56,-66.5,-82.37,0.4,-0.38,0.58,0.61
3.0,123.94,51.06,0.25,123.94,51.06,0.25,0.42,-0.38,-0.2,-0.8,3.0,246.31,-66.37,-83.19,246.31,-66.37,-83.19,0.4,-0.38,0.58,0.61
3.0,123.94,51.06,0.19,123.94,51.06,0.19,0.42,-0.38,-0.2,-0.8,3.0,246.31,-66.44,-83.56,246.31,-66.44,-83.56,0.4,-0.38,0.58,0.6
3.0,123.94,51.13,0.19,123.94,51.13,0.19,0.42,-0.38,-0.2,-0.8,3.0,246.25,-66.5,-83.94,246.25,-66.5,-83.94,0.39,-0.38,0.58,0.6
3.0,123.94,51.13,0.19,123.94,51.13,0.19,0.42,-0.38,-0.2,-0.8,3.0,246.13,-66.44,-84.31,246.13,-66.44,-84.31,0.39,-0.38,0.58,0.6
3.0,123.94,51.13,0.25,123.94,51.13,0.25,0.42,-0.38,-0.2,-0.8,3.0,246.06,-66.31,-84.5,246.06,-66.31,-84.5,0.39,-0.38,0.58,0.6
3.0,123.94,51.13,0.25,123.94,51.13,0.25,0.42,-0.38,-0.2,-0.8,3.0,246.0,-66.31,-84.56,246.0,-66.31,-84.56,0.39,-0.38,0.58,0.6
3.0,123.94,51.19,0.25,123.94,51.19,0.25,0.42,-0.38,-0.2,-0.8,3.0,246.0,-66.31,-84.62,246.0,-66.31,-84.62,0.39,-0.38,0.58,0.6
3.0,123.94,51.19,0.31,123.94,51.19,0.31,0.42,-0.38,-0.2,-0.8,3.0,245.94,-66.31,-84.75,245.94,-66.31,-84.75,0.39,-0.38,0.58,0.6
3.0,123.94,51.19,0.25,123.94,51.19,0.25,0.42,-0.38,-0.2,-0.8,3.0,246.06,-66.31,-84.5,246.06,-66.31,-84.5,0.39,-0.38,0.58,0.6
3.0,123.94,51.19,0.25,123.94,51.19,0.25,0.42,-0.38,-0.2,-0.8,3.0,246.13,-66.44,-84.12,246.13,-66.44,-84.12,0.39,-0.38,0.58,0.6
3.0,123.94,51.19,0.25,123.94,51.19,0.25,0.42,-0.38,-0.2,-0.8,3.0,246.0,-66.5,-83.87,246.0,-66.5,-83.87,0.39,-0.38,0.58,0.61
3.0,123.94,51.25,0.25,123.94,51.25,0.25,0.42,-0.38,-0.2,-0.8,3.0,246.0,-66.56,-83.44,246.0,-66.56,-83.44,0.39,-0.38,0.57,0.61
3.0,123.94,51.25,0.31,123.94,51.25,0.31,0.42,-0.38,-0.2,-0.8,3.0,246.06,-66.62,-83.06,246.06,-66.62,-83.06,0.39,-0.38,0.57,0.61
3.0,123.94,51.25,0.31,123.94,51.25,0.31,0.42,-0.38,-0.2,-0.8,3.0,246.13,-66.69,-83.0,246.13,-66.69,-83.0,0.4,-0.38,0.57,0.61
3.0,124.0,51.25,0.37,124.0,51.25,0.37,0.42,-0.38,-0.2,-0.8,3.0,246.13,-66.75,-82.87,246.13,-66.75,-82.87,0.4,-0.38,0.57,0.61
3.0,124.0,51.25,0.37,124.0,51.25,0.37,0.42,-0.38,-0.2,-0.8,3.0,246.13,-66.69,-82.81,246.13,-66.69,-82.81,0.4,-0.38,0.57,0.61
3.0,124.0,51.31,0.37,124.0,51.31,0.37,0.42,-0.38,-0.2,-0.8,3.0,246.19,-66.75,-82.81,246.19,-66.75,-82.81,0.4,-0.38,0.57,0.61
3.0,124.0,51.31,0.37,124.0,51.31,0.37,0.42,-0.38,-0.2,-0.8,3.0,246.19,-66.75,-82.87,246.19,-66.75,-82.87,0.4,-0.38,0.57,0.61
3.0,124.0,51.38,0.44,124.0,51.38,0.44,0.42,-0.38,-0.2,-0.8,3.0,246.19,-66.75,-82.87,246.19,-66.75,-82.87,0.4,-0.38,0.57,0.61
3.0,124.0,51.38,0.5,124.0,51.38,0.5,0.42,-0.38,-0.2,-0.8,3.0,246.19,-66.75,-82.87,246.19,-66.75,-82.87,0.4,-0.38,0.57,0.61
3.0,124.0,51.44,0.5,124.0,51.44,0.5,0.42,-0.38,-0.2,-0.8,3.0,246.25,-66.75,-82.81,246.25,-66.75,-82.81,0.4,-0.38,0.57,0.61
3.0,124.0,51.44,0.5,124.0,51.44,0.5,0.42,-0.39,-0.2,-0.8,3.0,246.19,-66.75,-82.81,246.19,-66.75,-82.81,0.4,-0.38,0.57,0.61
3.0,124.06,51.5,0.56,124.06,51.5,0.56,0.42,-0.39,-0.2,-0.8,3.0,246.13,-66.69,-82.75,246.13,-66.69,-82.75,0.39,-0.38,0.57,0.61
3.0,124.06,51.56,0.56,124.06,51.56,0.56,0.42,-0.39,-0.2,-0.8,3.0,245.94,-66.69,-82.81,245.94,-66.69,-82.81,0.39,-0.38,0.57,0.61
3.0,124.06,51.56,0.56,124.06,51.56,0.56,0.42,-0.39,-0.2,-0.8,3.0,245.56,-66.62,-83.06,245.56,-66.62,-83.06,0.39,-0.39,0.57,0.61
3.0,124.06,51.56,0.56,124.06,51.56,0.56,0.42,-0.39,-0.2,-0.8,3.0,245.38,-66.56,-83.19,245.38,-66.56,-83.19,0.39,-0.39,0.57,0.61
3.0,124.06,51.56,0.56,124.06,51.56,0.56,0.42,-0.39,-0.2,-0.8,3.0,245.38,-66.56,-83.19,245.38,-66.56,-83.19,0.39,-0.39,0.57,0.61
3.0,124.0,51.63,0.5,124.0,51.63,0.5,0.42,-0.39,-0.2,-0.8,3.0,245.44,-66.5,-83.06,245.44,-66.5,-83.06,0.39,-0.39,0.57,0.61
3.0,124.0,51.56,0.44,124.0,51.56,0.44,0.42,-0.39,-0.2,-0.8,3.0,245.56,-66.56,-82.75,245.56,-66.56,-82.75,0.39,-0.38,0.57,0.61
3.0,124.0,51.5,0.44,124.0,51.5,0.44,0.42,-0.39,-0.2,-0.8,3.0,245.75,-66.62,-82.44,245.75,-66.62,-82.44,0.39,-0.38,0.57,0.61
3.0,124.0,51.5,0.44,124.0,51.5,0.44,0.42,-0.39,-0.2,-0.8,3.0,245.81,-66.62,-82.25,245.81,-66.62,-82.25,0.39,-0.38,0.57,0.61
3.0,124.0,51.5,0.5,124.0,51.5,0.5,0.42,-0.39,-0.2,-0.8,3.0,245.94,-66.69,-82.06,245.94,-66.69,-82.06,0.4,-0.38,0.57,0.61
3.0,124.0,51.5,0.5,124.0,51.5,0.5,0.42,-0.39,-0.2,-0.8,3.0,246.06,-66.75,-81.75,246.06,-66.75,-81.75,0.4,-0.38,0.57,0.61
3.0,124.0,51.5,0.44,124.0,51.5,0.44,0.42,-0.39,-0.2,-0.8,3.0,246.25,-66.81,-81.44,246.25,-66.81,-81.44,0.4,-0.38,0.57,0.61
3.0,124.0,51.5,0.44,124.0,51.5,0.44,0.42,-0.39,-0.2,-0.8,3.0,246.44,-66.87,-81.0,246.44,-66.87,-81.0,0.4,-0.38,0.57,0.61
3.0,124.0,51.5,0.44,124.0,51.5,0.44,0.42,-0.39,-0.2,-0.8,3.0,246.63,-66.94,-80.62,246.63,-66.94,-80.62,0.4,-0.38,0.57,0.61
3.0,124.0,51.5,0.44,124.0,51.5,0.44,0.42,-0.39,-0.2,-0.8,3.0,246.94,-67.06,-80.0,246.94,-67.06,-80.0,0.4,-0.38,0.57,0.61
3.0,124.0,51.5,0.44,124.0,51.5,0.44,0.42,-0.39,-0.2,-0.8,3.0,247.06,-67.06,-79.81,247.06,-67.06,-79.81,0.4,-0.38,0.57,0.61
3.0,124.0,51.5,0.44,124.0,51.5,0.44,0.42,-0.39,-0.2,-0.8,3.0,247.13,-67.0,-79.81,247.13,-67.0,-79.81,0.4,-0.38,0.57,0.61
3.0,124.0,51.5,0.5,124.0,51.5,0.5,0.42,-0.39,-0.2,-0.8,3.0,247.31,-67.06,-79.37,247.31,-67.06,-79.37,0.41,-0.38,0.57,0.61
3.0,124.06,51.5,0.5,124.06,51.5,0.5,0.42,-0.39,-0.2,-0.8,3.0,247.69,-67.19,-78.25,247.69,-67.19,-78.25,0.41,-0.38,0.56,0.61
3.0,124.06,51.44,0.5,124.06,51.44,0.5,0.42,-0.39,-0.2,-0.8,3.0,248.13,-67.37,-77.06,248.13,-67.37,-77.06,0.41,-0.38,0.56,0.61
3.0,124.06,51.44,0.56,124.06,51.44,0.56,0.42,-0.39,-0.2,-0.8,3.0,248.5,-67.5,-76.31,248.5,-67.5,-76.31,0.42,-0.38,0.56,0.61
3.0,124.06,51.44,0.63,124.06,51.44,0.63,0.42,-0.39,-0.2,-0.8,3.0,248.5,-67.37,-76.56,248.5,-67.37,-76.56,0.42,-0.37,0.56,0.61
3.0,124.06,51.44,0.56,124.06,51.44,0.56,0.42,-0.39,-0.2,-0.8,3.0,248.06,-67.19,-77.75,248.06,-67.19,-77.75,0.41,-0.38,0.56,0.61
3.0,124.06,51.44,0.56,124.06,51.44,0.56,0.42,-0.39,-0.2,-0.8,3.0,247.63,-67.12,-78.87,247.63,-67.12,-78.87,0.41,-0.38,0.57,0.61
3.0,124.12,51.44,0.56,124.12,51.44,0.56,0.42,-0.38,-0.2,-0.8,3.0,247.63,-67.12,-79.0,247.63,-67.12,-79.0,0.41,-0.38,0.57,0.61
3.0,124.19,51.25,0.06,124.19,51.25,0.06,0.42,-0.38,-0.2,-0.8,3.0,248.19,-67.12,-78.37,248.19,-67.12,-78.37,0.41,-0.37,0.57,0.61
3.0,124.19,51.0,-0.81,124.19,51.0,-0.81,0.42,-0.38,-0.21,-0.8,3.0,249.13,-67.12,-77.5,249.13,-67.12,-77.5,0.42,-0.37,0.57,0.61
3.0,124.19,51.0,-1.12,124.19,51.0,-1.12,0.42,-0.38,-0.21,-0.8,3.0,249.75,-67.0,-77.44,249.75,-67.0,-77.44,0.42,-0.36,0.57,0.6
3.0,124.25,51.19,-1.0,124.25,51.19,-1.0,0.42,-0.38,-0.21,-0.8,3.0,249.69,-66.69,-77.94,249.69,-66.69,-77.94,0.42,-0.36,0.57,0.6
3.0,124.31,51.38,-0.81,124.31,51.38,-0.81,0.42,-0.38,-0.21,-0.8,3.0,249.44,-66.25,-78.56,249.44,-66.25,-78.56,0.42,-0.36,0.58,0.6
3.0,124.31,51.63,-0.31,124.31,51.63,-0.31,0.42,-0.39,-0.2,-0.8,3.0,249.19,-66.06,-78.37,249.19,-66.06,-78.37,0.42,-0.36,0.58,0.61
3.0,124.37,51.88,0.0,124.37,51.88,0.0,0.42,-0.39,-0.2,-0.8,3.0,249.0,-66.0,-78.31,249.0,-66.0,-78.31,0.42,-0.36,0.58,0.61
3.0,124.37,51.88,0.19,124.37,51.88,0.19,0.42,-0.39,-0.2,-0.8,3.0,248.69,-65.81,-78.69,248.69,-65.81,-78.69,0.41,-0.36,0.58,0.61
3.0,124.37,51.81,0.31,124.37,51.81,0.31,0.42,-0.39,-0.2,-0.8,3.0,248.63,-65.81,-78.87,248.63,-65.81,-78.87,0.41,-0.36,0.58,0.61
3.0,124.44,51.75,0.44,124.44,51.75,0.44,0.42,-0.39,-0.2,-0.8,3.0,248.63,-66.0,-79.06,248.63,-66.0,-79.06,0.41,-0.36,0.58,0.61
3.0,124.44,51.69,0.44,124.44,51.69,0.44,0.42,-0.39,-0.2,-0.8,3.0,248.44,-66.12,-79.56,248.44,-66.12,-79.56,0.41,-0.36,0.58,0.61
3.0,124.5,51.56,0.44,124.5,51.56,0.44,0.42,-0.39,-0.2,-0.8,3.0,248.13,-66.0,-79.94,248.13,-66.0,-79.94,0.41,-0.36,0.58,0.61
3.0,124.5,51.5,0.44,124.5,51.5,0.44,0.42,-0.39,-0.2,-0.8,3.0,248.0,-65.94,-79.87,248.0,-65.94,-79.87,0.41,-0.36,0.58,0.61
3.0,124.5,51.5,0.44,124.5,51.5,0.44,0.42,-0.39,-0.2,-0.8,3.0,247.88,-65.87,-79.94,247.88,-65.87,-79.94,0.41,-0.36,0.58,0.61
3.0,124.5,51.5,0.5,124.5,51.5,0.5,0.42,-0.39,-0.2,-0.8,3.0,247.63,-65.81,-80.31,247.63,-65.81,-80.31,0.41,-0.37,0.58,0.61
3.0,124.5,51.5,0.5,124.5,51.5,0.5,0.42,-0.39,-0.2,-0.8,3.0,247.44,-65.81,-80.44,247.44,-65.81,-80.44,0.41,-0.37,0.58,0.61
3.0,124.5,51.5,0.5,124.5,51.5,0.5,0.42,-0.39,-0.2,-0.8,3.0,247.5,-65.81,-80.31,247.5,-65.81,-80.31,0.41,-0.37,0.58,0.61
3.0,124.5,51.56,0.5,124.5,51.56,0.5,0.42,-0.39,-0.2,-0.8,3.0,247.69,-65.87,-80.0,247.69,-65.87,-80.0,0.41,-0.36,0.58,0.61
3.0,124.5,51.56,0.44,124.5,51.56,0.44,0.42,-0.39,-0.2,-0.8,3.0,247.81,-65.87,-79.69,247.81,-65.87,-79.69,0.41,-0.36,0.58,0.61
3.0,124.5,51.63,0.37,124.5,51.63,0.37,0.42,-0.39,-0.2,-0.8,3.0,247.94,-65.87,-79.69,247.94,-65.87,-79.69,0.41,-0.36,0.58,0.61
3.0,124.56,51.69,0.31,124.56,51.69,0.31,0.42,-0.39,-0.2,-0.8,3.0,247.88,-65.69,-79.62,247.88,-65.69,-79.62,0.41,-0.36,0.58,0.61
3.0,124.56,51.69,0.37,124.56,51.69,0.37,0.42,-0.39,-0.2,-0.8,3.0,247.5,-65.37,-79.62,247.5,-65.37,-79.62,0.41,-0.36,0.58,0.61
3.0,124.56,51.69,0.5,124.56,51.69,0.5,0.42,-0.39,-0.2,-0.8,3.0,247.19,-65.12,-79.81,247.19,-65.12,-79.81,0.41,-0.36,0.58,0.61
3.0,124.56,51.69,0.5,124.56,51.69,0.5,0.42,-0.39,-0.2,-0.8,3.0,247.31,-64.94,-79.94,247.31,-64.94,-79.94,0.41,-0.36,0.58,0.61
3.0,124.5,51.69,0.81,124.5,51.69,0.81,0.42,-0.39,-0.2,-0.8,3.0,247.69,-64.75,-79.87,247.69,-64.75,-79.87,0.41,-0.35,0.58,0.61
3.0,124.5,51.69,1.19,124.5,51.69,1.19,0.42,-0.39,-0.2,-0.8,3.0,247.94,-64.62,-79.87,247.94,-64.62,-79.87,0.41,-0.35,0.58,0.61
3.0,124.5,51.63,1.19,124.5,51.63,1.19,0.42,-0.39,-0.2,-0.8,3.0,248.0,-64.62,-79.87,248.0,-64.62,-79.87,0.41,-0.35,0.58,0.61
3.0,124.5,51.63,1.12,124.5,51.63,1.12,0.42,-0.39,-0.2,-0.8,3.0,247.88,-64.69,-80.0,247.88,-64.69,-80.0,0.41,-0.35,0.58,0.61
3.0,124.5,51.63,1.12,124.5,51.63,1.12,0.42,-0.39,-0.2,-0.8,3.0,247.69,-64.69,-80.31,247.69,-64.69,-80.31,0.41,-0.35,0.58,0.61
3.0,124.56,51.69,1.06,124.56,51.69,1.06,0.42,-0.39,-0.2,-0.8,3.0,247.38,-64.69,-80.75,247.38,-64.69,-80.75,0.41,-0.35,0.58,0.61
3.0,124.56,51.75,1.06,124.56,51.75,1.06,0.42,-0.39,-0.2,-0.8,3.0,247.31,-64.62,-80.75,247.31,-64.62,-80.75,0.41,-0.35,0.58,0.61
3.0,124.56,51.75,1.06,124.56,51.75,1.06,0.42,-0.39,-0.2,-0.8,3.0,247.19,-64.5,-80.62,247.19,-64.5,-80.62,0.4,-0.35,0.58,0.61
3.0,124.62,51.75,1.06,124.62,51.75,1.06,0.42,-0.39,-0.2,-0.8,3.0,247.06,-64.25,-80.5,247.06,-64.25,-80.5,0.4,-0.35,0.58,0.61
3.0,124.62,51.81,1.12,124.62,51.81,1.12,0.42,-0.39,-0.2,-0.8,3.0,246.94,-64.12,-80.5,246.94,-64.12,-80.5,0.4,-0.35,0.58,0.61
3.0,124.62,51.81,1.19,124.62,51.81,1.19,0.42,-0.39,-0.2,-0.8,3.0,246.88,-64.0,-80.62,246.88,-64.0,-80.62,0.4,-0.35,0.58,0.61
3.0,124.62,51.81,1.19,124.62,51.81,1.19,0.42,-0.39,-0.2,-0.8,3.0,246.75,-63.94,-80.62,246.75,-63.94,-80.62,0.4,-0.35,0.58,0.61
3.0,124.62,51.81,1.19,124.62,51.81,1.19,0.42,-0.39,-0.2,-0.8,3.0,246.69,-63.94,-80.69,246.69,-63.94,-80.69,0.4,-0.35,0.58,0.61
3.0,124.62,51.81,1.12,124.62,51.81,1.12,0.42,-0.39,-0.2,-0.8,3.0,246.63,-63.94,-80.87,246.63,-63.94,-80.87,0.4,-0.35,0.59,0.61
3.0,124.62,51.81,1.12,124.62,51.81,1.12,0.42,-0.39,-0.2,-0.8,3.0,246.56,-63.88,-81.06,246.56,-63.88,-81.06,0.4,-0.35,0.59,0.61
3.0,124.62,51.81,1.12,124.62,51.81,1.12,0.42,-0.39,-0.2,-0.8,3.0,246.5,-63.88,-81.19,246.5,-63.88,-81.19,0.4,-0.35,0.59,0.61
3.0,124.62,51.81,1.12,124.62,51.81,1.12,0.42,-0.39,-0.2,-0.8,3.0,246.63,-63.94,-81.12,246.63,-63.94,-81.12,0.4,-0.35,0.59,0.61
3.0,124.62,51.81,1.19,124.62,51.81,1.19,0.42,-0.39,-0.2,-0.8,3.0,246.63,-63.94,-81.12,246.63,-63.94,-81.12,0.4,-0.35,0.59,0.61
3.0,124.62,51.88,1.25,124.62,51.88,1.25,0.42,-0.39,-0.2,-0.8,3.0,246.69,-64.06,-81.0,246.69,-64.06,-81.0,0.4,-0.35,0.59,0.61
3.0,124.62,51.94,1.31,124.62,51.94,1.31,0.42,-0.39,-0.2,-0.8,3.0,246.69,-64.06,-81.0,246.69,-64.06,-81.0,0.4,-0.35,0.59,0.61
3.0,124.62,51.94,1.44,124.62,51.94,1.44,0.42,-0.39,-0.2,-0.8,3.0,246.75,-64.12,-81.06,246.75,-64.12,-81.06,0.4,-0.35,0.59,0.61
3.0,124.62,52.0,1.69,124.62,52.0,1.69,0.42,-0.39,-0.19,-0.8,3.0,246.94,-64.19,-80.94,246.94,-64.19,-80.94,0.4,-0.35,0.58,0.61
3.0,124.62,51.88,1.69,124.62,51.88,1.69,0.42,-0.39,-0.19,-0.8,3.0,247.0,-64.19,-81.12,247.0,-64.19,-81.12,0.4,-0.35,0.59,0.61
3.0,124.62,51.75,1.63,124.62,51.75,1.63,0.42,-0.39,-0.19,-0.8,3.0,246.94,-64.12,-81.37,246.94,-64.12,-81.37,0.4,-0.35,0.59,0.61
3.0,124.62,51.69,1.56,124.62,51.69,1.56,0.42,-0.39,-0.19,-0.8,3.0,247.0,-64.19,-81.37,247.0,-64.19,-81.37,0.4,-0.35,0.59,0.61
3.0,124.56,51.69,1.5,124.56,51.69,1.5,0.42,-0.39,-0.19,-0.8,3.0,247.06,-64.25,-81.06,247.06,-64.25,-81.06,0.4,-0.35,0.59,0.61
3.0,124.56,51.69,1.5,124.56,51.69,1.5,0.42,-0.39,-0.19,-0.8,3.0,247.13,-64.25,-81.0,247.13,-64.25,-81.0,0.4,-0.35,0.59,0.61
3.0,124.56,51.75,1.5,124.56,51.75,1.5,0.42,-0.39,-0.19,-0.8,3.0,247.31,-64.37,-80.81,247.31,-64.37,-80.81,0.41,-0.35,0.58,0.61
3.0,124.62,51.81,1.63,124.62,51.81,1.63,0.42,-0.39,-0.19,-0.8,3.0,247.44,-64.5,-80.5,247.44,-64.5,-80.5,0.41,-0.35,0.58,0.61
3.0,124.62,51.88,1.63,124.62,51.88,1.63,0.42,-0.39,-0.19,-0.8,3.0,247.5,-64.56,-80.25,247.5,-64.56,-80.25,0.41,-0.35,0.58,0.61
3.0,124.62,51.88,1.63,124.62,51.88,1.63,0.42,-0.39,-0.19,-0.8,3.0,247.56,-64.56,-80.06,247.56,-64.56,-80.06,0.41,-0.35,0.58,0.61
3.0,124.62,51.88,1.69,124.62,51.88,1.69,0.42,-0.39,-0.19,-0.8,3.0,247.69,-64.62,-79.94,247.69,-64.62,-79.94,0.41,-0.35,0.58,0.61
3.0,124.56,51.88,1.63,124.56,51.88,1.63,0.42,-0.39,-0.19,-0.8,3.0,247.63,-64.69,-79.94,247.63,-64.69,-79.94,0.41,-0.35,0.58,0.61
3.0,124.56,51.88,1.63,124.56,51.88,1.63,0.42,-0.39,-0.19,-0.8,3.0,247.69,-64.69,-79.87,247.69,-64.69,-79.87,0.41,-0.35,0.58,0.61
3.0,124.62,51.88,1.63,124.62,51.88,1.63,0.42,-0.39,-0.19,-0.8,3.0,247.75,-64.75,-79.62,247.75,-64.75,-79.62,0.41,-0.35,0.58,0.61
3.0,124.62,51.88,1.63,124.62,51.88,1.63,0.42,-0.39,-0.19,-0.8,3.0,247.81,-64.81,-79.5,247.81,-64.81,-79.5,0.41,-0.35,0.58,0.61
3.0,124.62,51.81,1.63,124.62,51.81,1.63,0.42,-0.39,-0.19,-0.8,3.0,247.81,-64.87,-79.44,247.81,-64.87,-79.44,0.41,-0.35,0.58,0.61
3.0,124.69,51.81,1.63,124.69,51.81,1.63,0.42,-0.39,-0.19,-0.8,3.0,247.81,-64.94,-79.06,247.81,-64.94,-79.06,0.41,-0.35,0.58,0.61
3.0,124.69,51.81,1.63,124.69,51.81,1.63,0.42,-0.39,-0.19,-0.8,3.0,247.94,-65.0,-78.69,247.94,-65.0,-78.69,0.41,-0.35,0.58,0.61
3.0,124.69,51.81,1.69,124.69,51.81,1.69,0.42,-0.39,-0.19,-0.8,3.0,248.0,-65.06,-78.31,248.0,-65.06,-78.31,0.41,-0.35,0.58,0.61
3.0,124.69,51.81,1.75,124.69,51.81,1.75,0.42,-0.39,-0.19,-0.8,3.0,248.0,-65.12,-78.0,248.0,-65.12,-78.0,0.41,-0.35,0.57,0.61
3.0,124.75,51.88,1.81,124.75,51.88,1.81,0.42,-0.39,-0.19,-0.8,3.0,247.94,-65.19,-77.75,247.94,-65.19,-77.75,0.41,-0.36,0.57,0.61
3.0,124.75,51.94,1.81,124.75,51.94,1.81,0.42,-0.39,-0.19,-0.8,3.0,247.88,-65.25,-77.5,247.88,-65.25,-77.5,0.41,-0.36,0.57,0.61
3.0,124.75,51.94,1.81,124.75,51.94,1.81,0.42,-0.39,-0.19,-0.8,3.0,247.81,-65.25,-77.37,247.81,-65.25,-77.37,0.41,-0.36,0.57,0.61
3.0,124.75,51.94,1.81,124.75,51.94,1.81,0.42,-0.39,-0.19,-0.8,3.0,247.81,-65.25,-77.12,247.81,-65.25,-77.12,0.41,-0.36,0.57,0.61
3.0,124.75,51.94,1.88,124.75,51.94,1.88,0.42,-0.39,-0.19,-0.8,3.0,247.88,-65.31,-76.94,247.88,-65.31,-76.94,0.41,-0.36,0.57,0.61
3.0,124.75,51.94,1.81,124.75,51.94,1.81,0.42,-0.39,-0.19,-0.8,3.0,247.81,-65.25,-77.0,247.81,-65.25,-77.0,0.41,-0.36,0.57,0.61
3.0,124.75,51.88,1.69,124.75,51.88,1.69,0.42,-0.39,-0.19,-0.8,3.0,247.75,-65.25,-77.19,247.75,-65.25,-77.19,0.41,-0.36,0.57,0.61
3.0,124.81,51.81,1.75,124.81,51.81,1.75,0.42,-0.39,-0.19,-0.8,3.0,247.69,-65.19,-77.5,247.69,-65.19,-77.5,0.41,-0.36,0.57,0.61
3.0,124.75,51.81,1.69,124.75,51.81,1.69,0.42,-0.39,-0.19,-0.8,3.0,247.69,-65.19,-77.69,247.69,-65.19,-77.69,0.41,-0.36,0.57,0.61
3.0,124.75,51.81,1.63,124.75,51.81,1.63,0.42,-0.39,-0.19,-0.8,3.0,247.63,-65.12,-78.06,247.63,-65.12,-78.06,0.41,-0.36,0.58,0.61
3.0,124.75,51.88,1.63,124.75,51.88,1.63,0.42,-0.39,-0.19,-0.8,3.0,247.69,-65.0,-78.56,247.69,-65.0,-78.56,0.41,-0.36,0.58,0.61
3.0,124.75,51.88,1.69,124.75,51.88,1.69,0.42,-0.39,-0.19,-0.8,3.0,247.94,-65.0,-78.75,247.94,-65.0,-78.75,0.41,-0.35,0.58,0.61
3.0,124.75,51.94,1.81,124.75,51.94,1.81,0.42,-0.39,-0.19,-0.8,3.0,248.0,-65.12,-78.69,248.0,-65.12,-78.69,0.41,-0.35,0.58,0.61
3.0,124.75,52.0,2.0,124.75,52.0,2.0,0.42,-0.39,-0.19,-0.8,3.0,247.94,-65.19,-78.75,247.94,-65.19,-78.75,0.41,-0.36,0.58,0.61
3.0,124.75,52.06,2.19,124.75,52.06,2.19,0.42,-0.4,-0.19,-0.8,3.0,247.63,-65.06,-79.25,247.63,-65.06,-79.25,0.41,-0.36,0.58,0.61
3.0,124.75,52.06,2.25,124.75,52.06,2.25,0.42,-0.4,-0.19,-0.8,3.0,247.5,-65.0,-79.19,247.5,-65.0,-79.19,0.41,-0.36,0.58,0.61
3.0,124.75,52.06,2.44,124.75,52.06,2.44,0.42,-0.4,-0.19,-0.8,3.0,247.56,-65.0,-78.87,247.56,-65.0,-78.87,0.41,-0.36,0.58,0.61
3.0,124.81,52.06,2.63,124.81,52.06,2.63,0.42,-0.4,-0.19,-0.8,3.0,247.44,-65.0,-79.06,247.44,-65.0,-79.06,0.41,-0.36,0.58,0.61
3.0,124.81,52.13,2.75,124.81,52.13,2.75,0.42,-0.4,-0.19,-0.8,3.0,247.19,-65.06,-79.31,247.19,-65.06,-79.31,0.41,-0.36,0.58,0.61
3.0,124.87,52.13,2.81,124.87,52.13,2.81,0.42,-0.4,-0.19,-0.8,3.0,247.19,-65.31,-79.12,247.19,-65.31,-79.12,0.41,-0.36,0.57,0.61
3.0,124.87,52.06,2.81,124.87,52.06,2.81,0.42,-0.4,-0.19,-0.8,3.0,247.0,-65.5,-79.19,247.0,-65.5,-79.19,0.4,-0.36,0.57,0.61
3.0,124.87,52.06,2.88,124.87,52.06,2.88,0.42,-0.4,-0.19,-0.8,3.0,246.81,-65.5,-79.44,246.81,-65.5,-79.44,0.4,-0.37,0.57,0.61
3.0,124.87,52.06,3.0,124.87,52.06,3.0,0.42,-0.4,-0.19,-0.8,3.0,246.63,-65.5,-79.44,246.63,-65.5,-79.44,0.4,-0.37,0.57,0.61
3.0,124.87,52.0,3.0,124.87,52.0,3.0,0.42,-0.4,-0.19,-0.8,3.0,246.38,-65.44,-79.56,246.38,-65.44,-79.56,0.4,-0.37,0.57,0.61
3.0,124.87,51.94,3.13,124.87,51.94,3.13,0.42,-0.4,-0.19,-0.8,3.0,246.31,-65.31,-79.62,246.31,-65.31,-79.62,0.4,-0.37,0.57,0.61
3.0,124.94,51.88,3.38,124.94,51.88,3.38,0.42,-0.4,-0.18,-0.8,3.0,246.38,-65.31,-79.69,246.38,-65.31,-79.69,0.4,-0.36,0.57,0.61
3.0,125.0,51.81,3.56,125.0,51.81,3.56,0.41,-0.4,-0.18,-0.8,3.0,246.44,-65.19,-80.0,246.44,-65.19,-80.0,0.4,-0.36,0.58,0.61
3.0,125.0,51.75,3.56,125.0,51.75,3.56,0.41,-0.4,-0.18,-0.8,3.0,246.5,-65.06,-80.5,246.5,-65.06,-80.5,0.4,-0.36,0.58,0.61
3.0,125.0,51.75,3.56,125.0,51.75,3.56,0.41,-0.4,-0.18,-0.8,3.0,246.75,-65.06,-80.69,246.75,-65.06,-80.69,0.4,-0.36,0.58,0.61
3.0,125.0,51.69,3.63,125.0,51.69,3.63,0.41,-0.4,-0.18,-0.8,3.0,247.06,-65.06,-80.69,247.06,-65.06,-80.69,0.4,-0.36,0.58,0.61
3.0,125.0,51.69,3.63,125.0,51.69,3.63,0.41,-0.4,-0.18,-0.8,3.0,247.06,-65.0,-81.19,247.06,-65.0,-81.19,0.4,-0.36,0.58,0.61
3.0,125.06,51.69,3.56,125.06,51.69,3.56,0.41,-0.4,-0.18,-0.8,3.0,246.88,-64.94,-81.87,246.88,-64.94,-81.87,0.4,-0.36,0.58,0.61
3.0,125.06,51.63,3.44,125.06,51.63,3.44,0.41,-0.4,-0.18,-0.8,3.0,246.75,-64.81,-82.44,246.75,-64.81,-82.44,0.4,-0.36,0.58,0.61
3.0,125.12,51.75,3.19,125.12,51.75,3.19,0.41,-0.4,-0.18,-0.8,3.0,247.13,-64.69,-83.19,247.13,-64.69,-83.19,0.4,-0.36,0.59,0.6
3.0,125.12,51.88,3.06,125.12,51.88,3.06,0.41,-0.4,-0.19,-0.8,3.0,247.94,-64.44,-84.19,247.94,-64.44,-84.19,0.4,-0.35,0.6,0.6
3.0,125.19,51.94,2.81,125.19,51.94,2.81,0.41,-0.4,-0.19,-0.8,3.0,249.06,-64.12,-85.37,249.06,-64.12,-85.37,0.41,-0.34,0.6,0.59
3.0,125.19,51.88,2.5,125.19,51.88,2.5,0.41,-0.4,-0.19,-0.8,3.0,250.13,-63.88,-86.56,250.13,-63.88,-86.56,0.41,-0.34,0.61,0.59
3.0,125.25,51.75,2.25,125.25,51.75,2.25,0.41,-0.39,-0.19,-0.8,3.0,250.56,-63.56,-87.25,250.56,-63.56,-87.25,0.41,-0.33,0.62,0.58
3.0,125.25,51.56,2.06,125.25,51.56,2.06,0.41,-0.39,-0.19,-0.8,3.0,250.94,-63.19,-88.25,250.94,-63.19,-88.25,0.41,-0.33,0.62,0.58
3.0,125.25,51.44,2.06,125.25,51.44,2.06,0.41,-0.39,-0.19,-0.8,3.0,251.0,-62.88,-89.31,251.0,-62.88,-89.31,0.41,-0.33,0.63,0.58
3.0,125.25,51.44,2.06,125.25,51.44,2.06,0.41,-0.39,-0.19,-0.8,3.0,250.44,-62.69,-90.25,250.44,-62.69,-90.25,0.41,-0.33,0.63,0.58
3.0,125.25,51.44,2.0,125.25,51.44,2.0,0.41,-0.39,-0.19,-0.8,3.0,249.88,-62.5,-90.87,249.88,-62.5,-90.87,0.4,-0.33,0.63,0.58
3.0,125.31,51.38,2.0,125.31,51.38,2.0,0.41,-0.39,-0.19,-0.8,3.0,249.44,-62.44,-91.31,249.44,-62.44,-91.31,0.4,-0.33,0.63,0.58
3.0,125.31,51.31,2.06,125.31,51.31,2.06,0.41,-0.39,-0.19,-0.8,3.0,249.63,-62.5,-91.37,249.63,-62.5,-91.37,0.4,-0.33,0.63,0.58
3.0,125.37,51.31,2.13,125.37,51.31,2.13,0.41,-0.39,-0.19,-0.8,3.0,249.88,-62.56,-91.5,249.88,-62.56,-91.5,0.4,-0.33,0.63,0.58
3.0,125.37,51.38,2.25,125.37,51.38,2.25,0.41,-0.39,-0.19,-0.8,3.0,249.81,-62.44,-92.06,249.81,-62.44,-92.06,0.4,-0.33,0.63,0.58
3.0,125.37,51.44,2.38,125.37,51.44,2.38,0.41,-0.39,-0.19,-0.8,3.0,249.69,-62.25,-92.69,249.69,-62.25,-92.69,0.4,-0.33,0.63,0.57
3.0,125.37,51.44,2.31,125.37,51.44,2.31,0.41,-0.39,-0.19,-0.8,3.0,249.63,-62.13,-93.25,249.63,-62.13,-93.25,0.4,-0.33,0.64,0.57
3.0,125.37,51.44,2.38,125.37,51.44,2.38,0.41,-0.39,-0.19,-0.8,3.0,249.44,-61.94,-93.75,249.44,-61.94,-93.75,0.4,-0.33,0.64,0.57
3.0,125.44,51.44,2.44,125.44,51.44,2.44,0.41,-0.39,-0.19,-0.8,3.0,249.44,-61.94,-93.87,249.44,-61.94,-93.87,0.4,-0.33,0.64,0.57
3.0,125.44,51.38,2.44,125.44,51.38,2.44,0.41,-0.39,-0.19,-0.8,3.0,249.56,-61.94,-94.06,249.56,-61.94,-94.06,0.4,-0.33,0.64,0.57
3.0,125.44,51.38,2.5,125.44,51.38,2.5,0.41,-0.39,-0.19,-0.8,3.0,249.5,-61.88,-94.31,249.5,-61.88,-94.31,0.4,-0.33,0.64,0.57
3.0,125.44,51.38,2.5,125.44,51.38,2.5,0.41,-0.39,-0.19,-0.8,3.0,249.31,-61.75,-94.75,249.31,-61.75,-94.75,0.39,-0.33,0.64,0.57
3.0,125.44,51.38,2.44,125.44,51.38,2.44,0.41,-0.39,-0.19,-0.8,3.0,249.25,-61.63,-95.25,249.25,-61.63,-95.25,0.39,-0.33,0.64,0.57
3.0,125.5,51.31,2.44,125.5,51.31,2.44,0.41,-0.39,-0.19,-0.8,3.0,249.38,-61.63,-95.44,249.38,-61.63,-95.44,0.39,-0.33,0.64,0.57
3.0,125.5,51.31,2.44,125.5,51.31,2.44,0.41,-0.39,-0.19,-0.8,3.0,249.5,-61.63,-95.87,249.5,-61.63,-95.87,0.39,-0.33,0.65,0.57
3.0,125.5,51.31,2.38,125.5,51.31,2.38,0.41,-0.39,-0.19,-0.8,3.0,249.13,-61.31,-97.25,249.13,-61.31,-97.25,0.39,-0.33,0.65,0.56
3.0,125.44,51.31,2.25,125.44,51.31,2.25,0.41,-0.39,-0.19,-0.8,3.0,248.56,-61.0,-98.12,248.56,-61.0,-98.12,0.38,-0.33,0.65,0.56
3.0,125.44,51.31,2.31,125.44,51.31,2.31,0.41,-0.39,-0.19,-0.8,3.0,248.25,-60.81,-98.62,248.25,-60.81,-98.62,0.38,-0.33,0.65,0.56
3.0,125.37,51.38,2.5,125.37,51.38,2.5,0.41,-0.39,-0.18,-0.8,3.0,248.19,-60.75,-98.75,248.19,-60.75,-98.75,0.38,-0.33,0.65,0.56
3.0,125.31,51.44,2.94,125.31,51.44,2.94,0.41,-0.39,-0.18,-0.8,3.0,248.5,-60.81,-98.69,248.5,-60.81,-98.69,0.38,-0.33,0.65,0.56
3.0,125.31,51.5,3.38,125.31,51.5,3.38,0.41,-0.4,-0.18,-0.8,3.0,248.75,-60.88,-98.81,248.75,-60.88,-98.81,0.38,-0.33,0.65,0.56
3.0,125.37,51.63,3.63,125.37,51.63,3.63,0.41,-0.4,-0.18,-0.8,3.0,248.75,-60.81,-99.12,248.75,-60.81,-99.12,0.38,-0.33,0.66,0.56
3.0,125.37,51.56,3.63,125.37,51.56,3.63,0.41,-0.4,-0.18,-0.8,3.0,248.25,-60.56,-100.06,248.25,-60.56,-100.06,0.38,-0.33,0.66,0.56
3.0,125.44,51.5,3.5,125.44,51.5,3.5,0.41,-0.4,-0.18,-0.8,3.0,247.38,-60.19,-101.19,247.38,-60.19,-101.19,0.37,-0.34,0.66,0.56
3.0,125.5,51.44,3.5,125.5,51.44,3.5,0.41,-0.4,-0.18,-0.8,3.0,246.88,-59.94,-101.94,246.88,-59.94,-101.94,0.37,-0.34,0.66,0.56
3.0,125.5,51.38,3.56,125.5,51.38,3.56,0.41,-0.4,-0.18,-0.8,3.0,247.0,-59.94,-102.19,247.0,-59.94,-102.19,0.37,-0.34,0.66,0.56
3.0,125.56,51.31,3.5,125.56,51.31,3.5,0.41,-0.4,-0.18,-0.8,3.0,247.56,-60.06,-102.0,247.56,-60.06,-102.0,0.37,-0.33,0.66,0.56
3.0,125.56,51.25,3.44,125.56,51.25,3.44,0.41,-0.39,-0.18,-0.8,3.0,248.25,-60.25,-101.81,248.25,-60.25,-101.81,0.38,-0.33,0.66,0.55
3.0,125.62,51.13,3.31,125.62,51.13,3.31,0.41,-0.39,-0.18,-0.8,3.0,248.75,-60.31,-101.81,248.75,-60.31,-101.81,0.38,-0.33,0.67,0.55
3.0,125.69,51.06,3.25,125.69,51.06,3.25,0.41,-0.39,-0.18,-0.8,3.0,249.06,-60.25,-102.06,249.06,-60.25,-102.06,0.38,-0.33,0.67,0.55
3.0,125.69,51.0,3.13,125.69,51.0,3.13,0.41,-0.39,-0.18,-0.8,3.0,249.25,-60.19,-102.5,249.25,-60.19,-102.5,0.38,-0.33,0.67,0.55
3.0,125.75,51.0,3.06,125.75,51.0,3.06,0.41,-0.39,-0.18,-0.8,3.0,249.06,-60.06,-103.12,249.06,-60.06,-103.12,0.38,-0.33,0.67,0.55
3.0,125.75,51.06,3.13,125.75,51.06,3.13,0.41,-0.39,-0.18,-0.8,3.0,248.63,-59.75,-104.0,248.63,-59.75,-104.0,0.37,-0.33,0.67,0.55
3.0,125.81,51.06,3.19,125.81,51.06,3.19,0.41,-0.39,-0.18,-0.8,3.0,248.0,-59.44,-104.56,248.0,-59.44,-104.56,0.37,-0.33,0.67,0.55
3.0,125.81,51.13,3.25,125.81,51.13,3.25,0.41,-0.39,-0.18,-0.8,3.0,247.25,-59.13,-105.0,247.25,-59.13,-105.0,0.36,-0.33,0.67,0.55
3.0,125.81,51.13,3.25,125.81,51.13,3.25,0.41,-0.39,-0.18,-0.8,3.0,246.56,-58.75,-105.56,246.56,-58.75,-105.56,0.36,-0.34,0.68,0.55
3.0,125.81,51.06,3.25,125.81,51.06,3.25,0.41,-0.39,-0.18,-0.8,3.0,245.56,-58.25,-106.44,245.56,-58.25,-106.44,0.35,-0.34,0.68,0.55
3.0,125.81,51.0,3.19,125.81,51.0,3.19,0.41,-0.39,-0.18,-0.8,3.0,244.69,-57.75,-107.44,244.69,-57.75,-107.44,0.35,-0.34,0.68,0.55
3.0,125.87,51.0,3.25,125.87,51.0,3.25,0.41,-0.39,-0.18,-0.8,3.0,244.25,-57.38,-108.12,244.25,-57.38,-108.12,0.34,-0.34,0.68,0.55
3.0,125.87,51.0,3.31,125.87,51.0,3.31,0.41,-0.39,-0.18,-0.8,3.0,244.38,-57.25,-108.56,244.38,-57.25,-108.56,0.34,-0.34,0.69,0.54
3.0,125.94,51.0,3.25,125.94,51.0,3.25,0.41,-0.39,-0.18,-0.8,3.0,244.63,-57.31,-108.75,244.63,-57.31,-108.75,0.34,-0.34,0.69,0.54
3.0,125.94,51.0,3.13,125.94,51.0,3.13,0.41,-0.39,-0.18,-0.8,3.0,244.75,-57.25,-109.0,244.75,-57.25,-109.0,0.34,-0.34,0.69,0.54
3.0,126.0,50.94,3.0,126.0,50.94,3.0,0.41,-0.39,-0.18,-0.8,3.0,244.94,-57.13,-109.31,244.94,-57.13,-109.31,0.34,-0.34,0.69,0.54
3.0,126.0,50.88,2.81,126.0,50.88,2.81,0.41,-0.39,-0.18,-0.8,3.0,245.31,-57.06,-109.75,245.31,-57.06,-109.75,0.34,-0.34,0.69,0.54
3.0,126.0,50.81,2.69,126.0,50.81,2.69,0.41,-0.39,-0.18,-0.8,3.0,245.69,-56.94,-110.44,245.69,-56.94,-110.44,0.35,-0.34,0.7,0.53
3.0,126.0,50.88,2.75,126.0,50.88,2.75,0.41,-0.39,-0.18,-0.8,3.0,245.94,-56.75,-111.12,245.94,-56.75,-111.12,0.34,-0.33,0.7,0.53
3.0,126.0,50.88,2.69,126.0,50.88,2.69,0.41,-0.39,-0.18,-0.8,3.0,246.44,-56.63,-111.81,246.44,-56.63,-111.81,0.35,-0.33,0.7,0.53
3.0,126.06,50.88,2.56,126.06,50.88,2.56,0.41,-0.39,-0.18,-0.8,3.0,246.94,-56.69,-112.56,246.94,-56.69,-112.56,0.35,-0.33,0.7,0.52
3.0,126.06,50.88,2.5,126.06,50.88,2.5,0.41,-0.39,-0.18,-0.8,3.0,247.25,-56.75,-112.94,247.25,-56.75,-112.94,0.35,-0.33,0.7,0.52
3.0,126.06,50.88,2.44,126.06,50.88,2.44,0.41,-0.39,-0.18,-0.8,3.0,247.38,-56.81,-113.12,247.38,-56.81,-113.12,0.35,-0.33,0.7,0.52
3.0,126.06,50.88,2.38,126.06,50.88,2.38,0.41,-0.39,-0.18,-0.8,3.0,247.44,-56.88,-113.12,247.44,-56.88,-113.12,0.35,-0.33,0.7,0.52
3.0,126.06,50.88,2.44,126.06,50.88,2.44,0.41,-0.39,-0.18,-0.8,3.0,247.25,-56.81,-113.25,247.25,-56.81,-113.25,0.35,-0.33,0.7,0.52
3.0,126.06,50.75,2.38,126.06,50.75,2.38,0.41,-0.39,-0.18,-0.81,3.0,246.94,-56.63,-113.37,246.94,-56.63,-113.37,0.34,-0.33,0.71,0.52
3.0,126.12,50.69,2.19,126.12,50.69,2.19,0.41,-0.39,-0.18,-0.81,3.0,246.63,-56.44,-113.62,246.63,-56.44,-113.62,0.34,-0.34,0.71,0.52
3.0,126.12,50.63,2.06,126.12,50.63,2.06,0.41,-0.39,-0.18,-0.81,3.0,246.38,-56.19,-114.0,246.38,-56.19,-114.0,0.34,-0.34,0.71,0.52
3.0,126.19,50.56,1.94,126.19,50.56,1.94,0.41,-0.39,-0.18,-0.81,3.0,246.25,-56.06,-114.25,246.25,-56.06,-114.25,0.34,-0.34,0.71,0.52
3.0,126.19,50.5,1.88,126.19,50.5,1.88,0.41,-0.39,-0.18,-0.81,3.0,246.06,-55.88,-114.5,246.06,-55.88,-114.5,0.34,-0.34,0.71,0.52
3.0,126.25,50.44,1.81,126.25,50.44,1.81,0.41,-0.39,-0.18,-0.81,3.0,246.0,-55.81,-114.69,246.0,-55.81,-114.69,0.34,-0.34,0.71,0.52
3.0,126.25,50.38,1.75,126.25,50.38,1.75,0.41,-0.38,-0.18,-0.81,3.0,245.94,-55.81,-114.87,245.94,-55.81,-114.87,0.34,-0.34,0.71,0.52
3.0,126.25,50.31,1.69,126.25,50.31,1.69,0.41,-0.38,-0.18,-0.81,3.0,245.56,-55.63,-115.31,245.56,-55.63,-115.31,0.33,-0.34,0.71,0.52
3.0,126.31,50.25,1.63,126.31,50.25,1.63,0.41,-0.38,-0.18,-0.81,3.0,245.13,-55.44,-115.69,245.13,-55.44,-115.69,0.33,-0.34,0.71,0.52
3.0,126.31,50.19,1.56,126.31,50.19,1.56,0.41,-0.38,-0.18,-0.81,3.0,244.56,-55.25,-116.06,244.56,-55.25,-116.06,0.33,-0.34,0.71,0.52
3.0,126.31,50.13,1.56,126.31,50.13,1.56,0.41,-0.38,-0.18,-0.81,3.0,244.06,-55.0,-116.37,244.06,-55.0,-116.37,0.32,-0.35,0.71,0.52
3.0,126.31,50.13,1.56,126.31,50.13,1.56,0.41,-0.38,-0.18,-0.81,3.0,243.56,-54.63,-116.62,243.56,-54.63,-116.62,0.32,-0.35,0.71,0.52
3.0,126.37,50.06,1.5,126.37,50.06,1.5,0.41,-0.38,-0.18,-0.81,3.0,243.13,-54.31,-116.94,243.13,-54.31,-116.94,0.32,-0.35,0.72,0.52
3.0,126.37,49.94,1.37,126.37,49.94,1.37,0.41,-0.38,-0.18,-0.81,3.0,242.81,-54.13,-117.0,242.81,-54.13,-117.0,0.32,-0.35,0.72,0.52
3.0,126.31,49.88,1.31,126.31,49.88,1.31,0.41,-0.38,-0.18,-0.81,3.0,242.38,-53.69,-117.06,242.38,-53.69,-117.06,0.31,-0.34,0.72,0.52
3.0,126.31,49.81,1.25,126.31,49.81,1.25,0.41,-0.38,-0.18,-0.81,3.0,241.88,-53.06,-117.62,241.88,-53.06,-117.62,0.31,-0.34,0.72,0.52
3.0,126.31,49.75,1.19,126.31,49.75,1.19,0.41,-0.38,-0.18,-0.81,3.0,241.5,-52.75,-118.19,241.5,-52.75,-118.19,0.31,-0.34,0.72,0.51
3.0,126.25,49.69,1.06,126.25,49.69,1.06,0.41,-0.38,-0.18,-0.81,3.0,241.19,-52.69,-118.62,241.19,-52.69,-118.62,0.3,-0.35,0.72,0.51
3.0,126.25,49.69,0.94,126.25,49.69,0.94,0.41,-0.38,-0.18,-0.81,3.0,241.19,-52.81,-118.94,241.19,-52.81,-118.94,0.3,-0.35,0.72,0.51
3.0,126.25,49.69,0.88,126.25,49.69,0.88,0.41,-0.38,-0.18,-0.81,3.0,241.13,-52.94,-119.12,241.13,-52.94,-119.12,0.3,-0.35,0.72,0.51
3.0,126.25,49.69,0.81,126.25,49.69,0.81,0.41,-0.38,-0.19,-0.81,3.0,240.69,-52.94,-119.31,240.69,-52.94,-119.31,0.3,-0.36,0.72,0.51
3.0,126.25,49.69,0.63,126.25,49.69,0.63,0.41,-0.38,-0.19,-0.81,3.0,240.13,-52.81,-119.56,240.13,-52.81,-119.56,0.3,-0.36,0.72,0.51
3.0,126.19,49.69,0.56,126.19,49.69,0.56,0.41,-0.38,-0.19,-0.81,3.0,239.81,-52.81,-119.75,239.81,-52.81,-119.75,0.3,-0.36,0.72,0.51
3.0,126.19,49.75,0.56,126.19,49.75,0.56,0.41,-0.38,-0.19,-0.81,3.0,240.0,-53.06,-119.81,240.0,-53.06,-119.81,0.3,-0.37,0.72,0.51
3.0,126.19,49.75,0.5,126.19,49.75,0.5,0.41,-0.38,-0.19,-0.81,3.0,239.88,-53.0,-120.12,239.88,-53.0,-120.12,0.29,-0.37,0.72,0.51
3.0,126.19,49.75,0.5,126.19,49.75,0.5,0.41,-0.38,-0.19,-0.81,3.0,239.63,-52.75,-120.44,239.63,-52.75,-120.44,0.29,-0.37,0.72,0.51
3.0,126.12,49.75,0.44,126.12,49.75,0.44,0.41,-0.38,-0.19,-0.81,3.0,239.88,-52.81,-120.62,239.88,-52.81,-120.62,0.29,-0.37,0.72,0.51
3.0,126.12,49.81,0.5,126.12,49.81,0.5,0.41,-0.38,-0.19,-0.81,3.0,240.25,-52.88,-120.81,240.25,-52.88,-120.81,0.3,-0.37,0.72,0.51
3.0,126.12,49.88,0.5,126.12,49.88,0.5,0.41,-0.38,-0.19,-0.81,3.0,240.31,-52.81,-121.0,240.31,-52.81,-121.0,0.29,-0.37,0.72,0.51
3.0,126.12,49.88,0.44,126.12,49.88,0.44,0.41,-0.38,-0.19,-0.81,3.0,240.31,-52.56,-121.37,240.31,-52.56,-121.37,0.29,-0.36,0.73,0.5
3.0,126.12,49.81,0.37,126.12,49.81,0.37,0.41,-0.38,-0.19,-0.81,3.0,240.5,-52.44,-121.75,240.5,-52.44,-121.75,0.29,-0.36,0.73,0.5
3.0,126.12,49.69,0.31,126.12,49.69,0.31,0.41,-0.38,-0.19,-0.81,3.0,240.75,-52.31,-122.19,240.75,-52.31,-122.19,0.29,-0.36,0.73,0.5
3.0,126.12,49.63,0.25,126.12,49.63,0.25,0.41,-0.37,-0.19,-0.81,3.0,240.81,-52.06,-122.69,240.81,-52.06,-122.69,0.29,-0.36,0.73,0.5
3.0,126.19,49.56,0.25,126.19,49.56,0.25,0.41,-0.37,-0.19,-0.81,3.0,240.75,-51.75,-123.25,240.75,-51.75,-123.25,0.29,-0.36,0.73,0.49
3.0,126.19,49.5,0.19,126.19,49.5,0.19,0.41,-0.37,-0.19,-0.81,3.0,240.88,-51.5,-123.87,240.88,-51.5,-123.87,0.29,-0.36,0.74,0.49
3.0,126.19,49.38,0.12,126.19,49.38,0.12,0.41,-0.37,-0.19,-0.81,3.0,240.88,-51.0,-124.75,240.88,-51.0,-124.75,0.29,-0.36,0.74,0.49
3.0,126.25,49.38,0.19,126.25,49.38,0.19,0.41,-0.37,-0.19,-0.81,3.0,240.25,-50.5,-125.25,240.25,-50.5,-125.25,0.28,-0.36,0.74,0.49
3.0,126.25,49.31,0.19,126.25,49.31,0.19,0.41,-0.37,-0.19,-0.81,3.0,239.38,-50.0,-125.31,239.38,-50.0,-125.31,0.28,-0.36,0.75,0.49
3.0,126.25,49.31,0.19,126.25,49.31,0.19,0.41,-0.37,-0.19,-0.81,3.0,238.44,-49.38,-125.44,238.44,-49.38,-125.44,0.27,-0.36,0.75,0.49
3.0,126.25,49.31,0.19,126.25,49.31,0.19,0.41,-0.37,-0.19,-0.81,3.0,237.56,-48.75,-125.75,237.56,-48.75,-125.75,0.27,-0.36,0.75,0.49
3.0,126.25,49.31,0.19,126.25,49.31,0.19,0.41,-0.37,-0.19,-0.81,3.0,237.31,-48.5,-126.0,237.31,-48.5,-126.0,0.26,-0.36,0.75,0.48
3.0,126.25,49.31,0.19,126.25,49.31,0.19,0.41,-0.37,-0.19,-0.81,3.0,237.31,-48.25,-126.37,237.31,-48.25,-126.37,0.26,-0.36,0.75,0.48
3.0,126.25,49.31,0.19,126.25,49.31,0.19,0.41,-0.37,-0.19,-0.81,3.0,237.38,-47.94,-126.75,237.38,-47.94,-126.75,0.26,-0.36,0.76,0.48
3.0,126.25,49.31,0.19,126.25,49.31,0.19,0.41,-0.37,-0.19,-0.81,3.0,237.63,-47.81,-127.19,237.63,-47.81,-127.19,0.26,-0.36,0.76,0.48
3.0,126.25,49.31,0.25,126.25,49.31,0.25,0.41,-0.37,-0.19,-0.81,3.0,237.88,-47.63,-127.62,237.88,-47.63,-127.62,0.26,-0.36,0.76,0.47
3.0,126.25,49.31,0.25,126.25,49.31,0.25,0.41,-0.37,-0.19,-0.81,3.0,237.88,-47.31,-128.13,237.88,-47.31,-128.13,0.26,-0.36,0.76,0.47
3.0,126.25,49.31,0.19,126.25,49.31,0.19,0.41,-0.37,-0.19,-0.81,3.0,237.75,-47.0,-128.56,237.75,-47.0,-128.56,0.26,-0.36,0.77,0.47
3.0,126.25,49.31,0.19,126.25,49.31,0.19,0.41,-0.37,-0.19,-0.81,3.0,237.38,-46.63,-128.94,237.38,-46.63,-128.94,0.26,-0.36,0.77,0.47
3.0,126.25,49.31,0.19,126.25,49.31,0.19,0.41,-0.37,-0.19,-0.81,3.0,236.94,-46.38,-129.13,236.94,-46.38,-129.13,0.25,-0.36,0.77,0.47
3.0,126.25,49.31,0.12,126.25,49.31,0.12,0.41,-0.37,-0.19,-0.81,3.0,236.5,-46.13,-129.31,236.5,-46.13,-129.31,0.25,-0.36,0.77,0.47
3.0,126.19,49.31,0.12,126.19,49.31,0.12,0.41,-0.37,-0.19,-0.81,3.0,235.94,-45.88,-129.38,235.94,-45.88,-129.38,0.25,-0.36,0.77,0.47
3.0,126.19,49.38,0.12,126.19,49.38,0.12,0.41,-0.37,-0.19,-0.81,3.0,235.38,-45.75,-128.81,235.38,-45.75,-128.81,0.25,-0.36,0.77,0.47
3.0,126.25,49.38,0.19,126.25,49.38,0.19,0.41,-0.37,-0.19,-0.81,3.0,234.56,-45.44,-128.06,234.56,-45.44,-128.06,0.24,-0.36,0.77,0.47
3.0,126.25,49.31,0.19,126.25,49.31,0.19,0.41,-0.37,-0.19,-0.81,3.0,234.06,-45.25,-127.69,234.06,-45.25,-127.69,0.24,-0.36,0.77,0.48
3.0,126.25,49.25,0.31,126.25,49.25,0.31,0.41,-0.37,-0.19,-0.81,3.0,234.31,-45.25,-127.81,234.31,-45.25,-127.81,0.24,-0.36,0.77,0.47
3.0,126.25,49.19,0.63,126.25,49.19,0.63,0.41,-0.37,-0.18,-0.81,3.0,235.0,-45.38,-128.31,235.0,-45.38,-128.31,0.25,-0.35,0.77,0.47
3.0,126.25,49.19,0.88,126.25,49.19,0.88,0.41,-0.37,-0.18,-0.81,3.0,235.63,-45.31,-128.94,235.63,-45.31,-128.94,0.25,-0.35,0.77,0.47
3.0,126.25,49.25,1.06,126.25,49.25,1.06,0.41,-0.37,-0.18,-0.81,3.0,236.19,-45.06,-129.75,236.19,-45.06,-129.75,0.25,-0.35,0.78,0.46
3.0,126.25,49.19,1.06,126.25,49.19,1.06,0.41,-0.37,-0.18,-0.81,3.0,236.38,-44.63,-130.56,236.38,-44.63,-130.56,0.24,-0.35,0.78,0.46
3.0,126.25,49.06,0.94,126.25,49.06,0.94,0.41,-0.37,-0.18,-0.81,3.0,236.19,-44.13,-131.19,236.19,-44.13,-131.19,0.24,-0.35,0.78,0.45
3.0,126.31,48.94,0.81,126.31,48.94,0.81,0.41,-0.37,-0.18,-0.81,3.0,236.0,-43.75,-131.75,236.0,-43.75,-131.75,0.24,-0.35,0.79,0.45
3.0,126.31,48.88,0.88,126.31,48.88,0.88,0.41,-0.37,-0.18,-0.81,3.0,235.81,-43.44,-132.19,235.81,-43.44,-132.19,0.24,-0.35,0.79,0.45
3.0,126.25,48.88,0.88,126.25,48.88,0.88,0.41,-0.37,-0.18,-0.81,3.0,235.63,-43.13,-132.56,235.63,-43.13,-132.56,0.23,-0.35,0.79,0.44
3.0,126.19,48.94,1.06,126.19,48.94,1.06,0.41,-0.37,-0.18,-0.81,3.0,235.31,-42.88,-132.88,235.31,-42.88,-132.88,0.23,-0.35,0.79,0.44
3.0,126.12,49.0,1.25,126.12,49.0,1.25,0.41,-0.37,-0.18,-0.81,3.0,235.25,-42.75,-133.06,235.25,-42.75,-133.06,0.23,-0.35,0.79,0.44
3.0,126.06,49.0,1.75,126.06,49.0,1.75,0.41,-0.38,-0.18,-0.81,3.0,235.56,-42.75,-133.19,235.56,-42.75,-133.19,0.23,-0.35,0.79,0.44
3.0,125.81,49.06,2.63,125.81,49.06,2.63,0.41,-0.38,-0.17,-0.81,3.0,236.13,-42.69,-133.25,236.13,-42.69,-133.25,0.23,-0.35,0.79,0.44
3.0,125.62,48.94,3.0,125.62,48.94,3.0,0.42,-0.38,-0.17,-0.81,3.0,237.13,-42.88,-133.38,237.13,-42.88,-133.38,0.24,-0.34,0.8,0.44
3.0,125.56,48.88,3.0,125.56,48.88,3.0,0.42,-0.38,-0.17,-0.81,3.0,237.81,-43.0,-133.69,237.81,-43.0,-133.69,0.24,-0.34,0.8,0.44
3.0,125.5,48.94,2.88,125.5,48.94,2.88,0.42,-0.38,-0.17,-0.81,3.0,237.69,-42.63,-134.13,237.69,-42.63,-134.13,0.24,-0.34,0.8,0.43
3.0,125.56,49.0,2.75,125.56,49.0,2.75,0.42,-0.38,-0.17,-0.81,3.0,237.13,-42.19,-134.31,237.13,-42.19,-134.31,0.23,-0.34,0.8,0.43
3.0,125.56,49.06,2.75,125.56,49.06,2.75,0.42,-0.38,-0.17,-0.81,3.0,236.38,-41.94,-134.31,236.38,-41.94,-134.31,0.23,-0.34,0.8,0.43
3.0,125.62,49.0,2.81,125.62,49.0,2.81,0.42,-0.38,-0.17,-0.81,3.0,235.63,-41.56,-134.31,235.63,-41.56,-134.31,0.23,-0.35,0.8,0.43
3.0,125.62,48.88,2.69,125.62,48.88,2.69,0.42,-0.38,-0.17,-0.81,3.0,235.38,-41.44,-134.38,235.38,-41.44,-134.38,0.23,-0.35,0.8,0.43
3.0,125.62,48.75,2.5,125.62,48.75,2.5,0.42,-0.37,-0.17,-0.81,3.0,235.5,-41.5,-134.5,235.5,-41.5,-134.5,0.23,-0.35,0.8,0.43
3.0,125.62,48.63,2.31,125.62,48.63,2.31,0.42,-0.37,-0.17,-0.81,3.0,235.5,-41.44,-134.56,235.5,-41.44,-134.56,0.23,-0.35,0.8,0.43
3.0,125.62,48.5,2.25,125.62,48.5,2.25,0.42,-0.37,-0.17,-0.81,3.0,235.44,-41.38,-134.63,235.44,-41.38,-134.63,0.23,-0.35,0.8,0.43
3.0,125.62,48.44,2.31,125.62,48.44,2.31,0.42,-0.37,-0.17,-0.81,3.0,235.31,-41.19,-134.81,235.31,-41.19,-134.81,0.22,-0.35,0.8,0.43
3.0,125.62,48.44,2.31,125.62,48.44,2.31,0.42,-0.37,-0.17,-0.81,3.0,235.25,-41.0,-135.19,235.25,-41.0,-135.19,0.22,-0.35,0.8,0.43
3.0,125.62,48.44,2.25,125.62,48.44,2.25,0.42,-0.37,-0.17,-0.81,3.0,235.25,-40.75,-135.44,235.25,-40.75,-135.44,0.22,-0.35,0.81,0.42
3.0,125.62,48.44,2.19,125.62,48.44,2.19,0.42,-0.37,-0.17,-0.81,3.0,235.44,-40.69,-135.63,235.44,-40.69,-135.63,0.22,-0.35,0.81,0.42
3.0,125.56,48.31,2.19,125.56,48.31,2.19,0.42,-0.37,-0.17,-0.81,3.0,236.13,-40.88,-135.75,236.13,-40.88,-135.75,0.23,-0.34,0.81,0.42
3.0,125.56,48.25,2.13,125.56,48.25,2.13,0.42,-0.37,-0.17,-0.81,3.0,236.94,-40.94,-136.0,236.94,-40.94,-136.0,0.23,-0.34,0.81,0.42
3.0,125.5,48.19,1.94,125.5,48.19,1.94,0.42,-0.37,-0.18,-0.81,3.0,236.75,-40.75,-136.19,236.75,-40.75,-136.19,0.23,-0.34,0.81,0.42
3.0,125.5,48.13,1.81,125.5,48.13,1.81,0.42,-0.37,-0.18,-0.81,3.0,236.19,-40.44,-136.25,236.19,-40.44,-136.25,0.22,-0.34,0.81,0.42
3.0,125.5,48.19,1.75,125.5,48.19,1.75,0.42,-0.37,-0.18,-0.81,3.0,235.75,-40.31,-136.25,235.75,-40.31,-136.25,0.22,-0.34,0.81,0.42
3.0,125.56,48.25,1.69,125.56,48.25,1.69,0.42,-0.37,-0.18,-0.81,3.0,235.56,-40.31,-136.19,235.56,-40.31,-136.19,0.22,-0.34,0.81,0.42
3.0,125.56,48.31,1.69,125.56,48.31,1.69,0.42,-0.37,-0.18,-0.81,3.0,235.38,-40.31,-136.13,235.38,-40.31,-136.13,0.22,-0.35,0.81,0.42
3.0,125.56,48.38,1.69,125.56,48.38,1.69,0.42,-0.37,-0.18,-0.81,3.0,235.31,-40.31,-136.25,235.31,-40.31,-136.25,0.22,-0.35,0.81,0.42
3.0,125.56,48.38,1.69,125.56,48.38,1.69,0.42,-0.37,-0.18,-0.81,3.0,235.31,-40.25,-136.38,235.31,-40.25,-136.38,0.22,-0.35,0.81,0.42
3.0,125.56,48.31,1.63,125.56,48.31,1.63,0.42,-0.37,-0.18,-0.81,3.0,235.19,-40.13,-136.44,235.19,-40.13,-136.44,0.22,-0.35,0.81,0.42
3.0,125.56,48.25,1.63,125.56,48.25,1.63,0.42,-0.37,-0.18,-0.81,3.0,235.13,-40.06,-136.5,235.13,-40.06,-136.5,0.22,-0.35,0.81,0.42
3.0,125.56,48.19,1.63,125.56,48.19,1.63,0.42,-0.37,-0.18,-0.81,3.0,235.13,-40.0,-136.69,235.13,-40.0,-136.69,0.22,-0.35,0.81,0.42
3.0,125.56,48.13,1.63,125.56,48.13,1.63,0.42,-0.37,-0.18,-0.81,3.0,235.13,-39.69,-137.0,235.13,-39.69,-137.0,0.22,-0.35,0.81,0.41
3.0,125.56,48.13,1.63,125.56,48.13,1.63,0.42,-0.37,-0.18,-0.81,3.0,235.63,-39.63,-137.38,235.63,-39.63,-137.38,0.22,-0.34,0.82,0.41
3.0,125.56,48.13,1.63,125.56,48.13,1.63,0.42,-0.37,-0.18,-0.81,3.0,236.63,-39.88,-137.56,236.63,-39.88,-137.56,0.22,-0.34,0.82,0.41
3.0,125.62,48.13,1.5,125.62,48.13,1.5,0.42,-0.37,-0.18,-0.81,3.0,237.94,-40.38,-137.63,237.94,-40.38,-137.63,0.23,-0.34,0.82,0.41
3.0,125.62,48.13,1.5,125.62,48.13,1.5,0.42,-0.37,-0.18,-0.81,3.0,238.69,-40.69,-137.75,238.69,-40.69,-137.75,0.23,-0.34,0.82,0.41
3.0,125.62,48.19,1.5,125.62,48.19,1.5,0.42,-0.37,-0.18,-0.81,3.0,238.63,-40.5,-137.94,238.63,-40.5,-137.94,0.23,-0.34,0.82,0.41
3.0,125.62,48.19,1.5,125.62,48.19,1.5,0.42,-0.37,-0.18,-0.81,3.0,237.94,-40.06,-138.13,237.94,-40.06,-138.13,0.22,-0.34,0.82,0.41
3.0,125.62,48.25,1.5,125.62,48.25,1.5,0.42,-0.37,-0.18,-0.81,3.0,237.06,-39.63,-138.13,237.06,-39.63,-138.13,0.22,-0.34,0.82,0.41
3.0,125.62,48.25,1.5,125.62,48.25,1.5,0.42,-0.37,-0.18,-0.81,3.0,236.38,-39.31,-138.13,236.38,-39.31,-138.13,0.22,-0.34,0.82,0.41
3.0,125.62,48.19,1.5,125.62,48.19,1.5,0.42,-0.37,-0.18,-0.81,3.0,235.81,-39.13,-138.13,235.81,-39.13,-138.13,0.21,-0.34,0.82,0.41
3.0,125.62,48.19,1.56,125.62,48.19,1.56,0.42,-0.37,-0.18,-0.81,3.0,235.31,-38.81,-138.31,235.31,-38.81,-138.31,0.21,-0.35,0.82,0.4
3.0,125.62,48.19,1.44,125.62,48.19,1.44,0.42,-0.37,-0.18,-0.81,3.0,234.44,-38.44,-138.44,234.44,-38.44,-138.44,0.21,-0.35,0.82,0.4
3.0,125.62,48.19,1.31,125.62,48.19,1.31,0.42,-0.37,-0.18,-0.81,3.0,233.5,-38.13,-138.25,233.5,-38.13,-138.25,0.2,-0.35,0.82,0.41
3.0,125.62,48.19,1.19,125.62,48.19,1.19,0.42,-0.37,-0.18,-0.81,3.0,232.0,-37.5,-138.31,232.0,-37.5,-138.31,0.2,-0.35,0.82,0.41
3.0,125.62,48.25,1.19,125.62,48.25,1.19,0.42,-0.37,-0.18,-0.81,3.0,230.0,-36.63,-138.31,230.0,-36.63,-138.31,0.19,-0.35,0.82,0.41
3.0,125.62,48.31,1.31,125.62,48.31,1.31,0.42,-0.37,-0.18,-0.81,3.0,228.63,-36.13,-138.19,228.63,-36.13,-138.19,0.18,-0.35,0.82,0.41
3.0,125.56,48.31,1.37,125.56,48.31,1.37,0.42,-0.37,-0.18,-0.81,3.0,227.94,-35.94,-138.13,227.94,-35.94,-138.13,0.18,-0.36,0.82,0.41
3.0,125.56,48.31,1.37,125.56,48.31,1.37,0.42,-0.37,-0.18,-0.81,3.0,227.5,-35.69,-138.25,227.5,-35.69,-138.25,0.18,-0.36,0.82,0.41
3.0,125.56,48.31,1.37,125.56,48.31,1.37,0.42,-0.37,-0.18,-0.81,3.0,227.38,-35.56,-138.5,227.38,-35.56,-138.5,0.18,-0.36,0.82,0.4
3.0,125.56,48.25,1.12,125.56,48.25,1.12,0.42,-0.37,-0.18,-0.81,3.0,228.31,-35.75,-138.88,228.31,-35.75,-138.88,0.18,-0.36,0.82,0.4
3.0,125.62,48.19,1.0,125.62,48.19,1.0,0.42,-0.37,-0.18,-0.81,3.0,229.19,-35.81,-139.44,229.19,-35.81,-139.44,0.18,-0.36,0.83,0.4
3.0,125.62,48.19,0.81,125.62,48.19,0.81,0.42,-0.37,-0.18,-0.81,3.0,229.75,-35.69,-140.06,229.75,-35.69,-140.06,0.18,-0.36,0.83,0.39
3.0,125.62,48.19,0.56,125.62,48.19,0.56,0.42,-0.36,-0.18,-0.81,3.0,230.0,-35.38,-140.63,230.0,-35.38,-140.63,0.18,-0.36,0.83,0.39
3.0,125.69,48.19,0.44,125.69,48.19,0.44,0.42,-0.36,-0.18,-0.81,3.0,229.75,-34.94,-141.0,229.75,-34.94,-141.0,0.18,-0.36,0.83,0.39
3.0,125.62,48.13,0.37,125.62,48.13,0.37,0.42,-0.36,-0.18,-0.81,3.0,229.06,-34.5,-141.31,229.06,-34.5,-141.31,0.17,-0.36,0.83,0.38
3.0,125.62,48.13,0.37,125.62,48.13,0.37,0.42,-0.36,-0.18,-0.81,3.0,228.5,-34.13,-141.56,228.5,-34.13,-141.56,0.17,-0.36,0.83,0.38
3.0,125.62,48.19,0.31,125.62,48.19,0.31,0.42,-0.36,-0.18,-0.81,3.0,227.5,-33.75,-141.5,227.5,-33.75,-141.5,0.17,-0.36,0.83,0.38
3.0,125.69,48.19,0.19,125.69,48.19,0.19,0.42,-0.36,-0.19,-0.81,3.0,226.5,-33.56,-141.25,226.5,-33.56,-141.25,0.16,-0.36,0.83,0.38
3.0,125.69,48.25,0.19,125.69,48.25,0.19,0.42,-0.36,-0.19,-0.81,3.0,225.94,-33.56,-140.94,225.94,-33.56,-140.94,0.16,-0.36,0.83,0.39
3.0,125.75,48.25,0.12,125.75,48.25,0.12,0.42,-0.36,-0.19,-0.81,3.0,225.94,-33.69,-140.75,225.94,-33.69,-140.75,0.16,-0.36,0.83,0.39
3.0,125.75,48.25,0.06,125.75,48.25,0.06,0.42,-0.36,-0.19,-0.81,3.0,226.31,-33.75,-141.0,226.31,-33.75,-141.0,0.17,-0.36,0.83,0.39
3.0,125.75,48.19,0.06,125.75,48.19,0.06,0.42,-0.36,-0.19,-0.81,3.0,227.06,-33.69,-141.63,227.06,-33.69,-141.63,0.17,-0.36,0.83,0.38
3.0,125.75,48.19,0.0,125.75,48.19,0.0,0.42,-0.36,-0.19,-0.81,3.0,227.5,-33.38,-142.38,227.5,-33.38,-142.38,0.17,-0.36,0.84,0.38
3.0,125.75,48.19,0.06,125.75,48.19,0.06,0.42,-0.36,-0.19,-0.81,3.0,227.25,-32.88,-142.94,227.25,-32.88,-142.94,0.16,-0.36,0.84,0.37
3.0,125.75,48.19,0.0,125.75,48.19,0.0,0.42,-0.36,-0.19,-0.81,3.0,226.56,-32.31,-143.25,226.56,-32.31,-143.25,0.16,-0.36,0.84,0.37
3.0,125.75,48.13,0.0,125.75,48.13,0.0,0.42,-0.36,-0.19,-0.81,3.0,225.56,-31.75,-143.44,225.56,-31.75,-143.44,0.15,-0.36,0.84,0.37
3.0,125.75,48.13,0.0,125.75,48.13,0.0,0.42,-0.36,-0.19,-0.81,3.0,224.31,-31.06,-143.56,224.31,-31.06,-143.56,0.15,-0.36,0.84,0.36
3.0,125.75,48.13,-0.06,125.75,48.13,-0.06,0.42,-0.36,-0.19,-0.81,3.0,223.0,-30.37,-143.63,223.0,-30.37,-143.63,0.14,-0.36,0.85,0.36
3.0,125.5,48.06,-0.19,125.5,48.06,-0.19,0.42,-0.36,-0.19,-0.81,3.0,221.75,-29.87,-143.56,221.75,-29.87,-143.56,0.14,-0.36,0.85,0.36
3.0,125.12,48.0,-0.19,125.12,48.0,-0.19,0.42,-0.36,-0.19,-0.81,3.0,220.25,-29.37,-143.44,220.25,-29.37,-143.44,0.13,-0.36,0.85,0.36
3.0,125.0,48.06,0.06,125.0,48.06,0.06,0.42,-0.36,-0.19,-0.81,3.0,218.69,-29.0,-143.06,218.69,-29.0,-143.06,0.13,-0.37,0.85,0.37
3.0,124.94,48.13,0.25,124.94,48.13,0.25,0.42,-0.36,-0.19,-0.81,3.0,217.56,-28.81,-142.75,217.56,-28.81,-142.75,0.13,-0.37,0.84,0.37
3.0,124.94,48.31,0.37,124.94,48.31,0.37,0.42,-0.36,-0.19,-0.81,3.0,216.94,-28.62,-142.56,216.94,-28.62,-142.56,0.12,-0.37,0.84,0.37
3.0,124.94,48.5,0.5,124.94,48.5,0.5,0.42,-0.37,-0.19,-0.81,3.0,217.19,-28.69,-142.75,217.19,-28.69,-142.75,0.12,-0.37,0.84,0.37
3.0,125.0,48.63,0.56,125.0,48.63,0.56,0.42,-0.37,-0.19,-0.81,3.0,217.75,-28.75,-143.06,217.75,-28.75,-143.06,0.13,-0.37,0.85,0.37
3.0,125.06,48.75,0.5,125.06,48.75,0.5,0.42,-0.37,-0.19,-0.81,3.0,218.38,-28.69,-143.5,218.38,-28.69,-143.5,0.13,-0.37,0.85,0.36
3.0,125.12,48.69,0.31,125.12,48.69,0.31,0.42,-0.37,-0.19,-0.81,3.0,313.06,-28.62,-143.75,313.06,-28.62,-143.75,0.13,-0.37,0.85,0.36
3.0,125.19,48.63,0.25,125.19,48.63,0.25,0.42,-0.37,-0.19,-0.81,3.0,313.31,-28.37,-144.25,313.31,-28.37,-144.25,0.13,-0.37,0.85,0.36
3.0,125.19,48.56,0.12,125.19,48.56,0.12,0.42,-0.37,-0.19,-0.81,3.0,313.38,-28.19,-144.56,313.38,-28.19,-144.56,0.13,-0.37,0.85,0.35
3.0,125.19,48.44,0.0,125.19,48.44,0.0,0.42,-0.36,-0.19,-0.81,3.0,313.56,-27.94,-144.94,313.56,-27.94,-144.94,0.12,-0.37,0.85,0.35
3.0,125.19,48.38,-0.25,125.19,48.38,-0.25,0.42,-0.36,-0.19,-0.81,3.0,313.69,-27.69,-145.31,313.69,-27.69,-145.31,0.12,-0.37,0.85,0.35
3.0,125.25,48.31,-0.37,125.25,48.31,-0.37,0.42,-0.36,-0.19,-0.81,3.0,313.81,-27.5,-145.5,313.81,-27.5,-145.5,0.12,-0.36,0.86,0.34
3.0,125.19,48.31,-0.44,125.19,48.31,-0.44,0.42,-0.36,-0.19,-0.81,3.0,313.94,-27.19,-145.94,313.94,-27.19,-145.94,0.12,-0.36,0.86,0.34
3.0,125.19,48.31,-0.56,125.19,48.31,-0.56,0.42,-0.36,-0.19,-0.81,3.0,314.0,-27.12,-146.13,314.0,-27.12,-146.13,0.12,-0.36,0.86,0.34
3.0,125.19,48.31,-0.75,125.19,48.31,-0.75,0.42,-0.36,-0.19,-0.81,3.0,314.19,-26.94,-146.44,314.19,-26.94,-146.44,0.12,-0.36,0.86,0.34
3.0,125.19,48.31,-0.81,125.19,48.31,-0.81,0.42,-0.36,-0.19,-0.81,3.0,314.31,-26.81,-147.06,314.31,-26.81,-147.06,0.12,-0.36,0.86,0.33
3.0,125.0,48.31,-0.81,125.0,48.31,-0.81,0.42,-0.36,-0.19,-0.81,3.0,314.38,-27.0,-147.31,314.38,-27.0,-147.31,0.13,-0.36,0.86,0.33
3.0,124.5,48.13,-1.06,124.5,48.13,-1.06,0.43,-0.36,-0.2,-0.81,3.0,314.56,-27.44,-147.94,314.56,-27.44,-147.94,0.13,-0.36,0.86,0.33
3.0,124.5,47.81,-1.19,124.5,47.81,-1.19,0.43,-0.35,-0.2,-0.81,3.0,314.88,-27.25,-148.38,314.88,-27.25,-148.38,0.13,-0.36,0.87,0.32
3.0,124.37,47.63,-1.06,124.37,47.63,-1.06,0.43,-0.35,-0.19,-0.81,3.0,315.06,-26.87,-148.81,315.06,-26.87,-148.81,0.13,-0.36,0.87,0.32
3.0,124.37,47.75,-1.06,124.37,47.75,-1.06,0.43,-0.36,-0.2,-0.81,3.0,315.31,-26.06,-149.63,315.31,-26.06,-149.63,0.12,-0.36,0.87,0.31
3.0,124.37,47.88,-1.06,124.37,47.88,-1.06,0.43,-0.36,-0.2,-0.81,3.0,315.63,-24.94,-150.38,315.63,-24.94,-150.38,0.11,-0.36,0.88,0.3
3.0,124.37,48.13,-0.81,124.37,48.13,-0.81,0.43,-0.36,-0.19,-0.81,3.0,315.81,-23.81,-150.88,315.81,-23.81,-150.88,0.11,-0.36,0.88,0.3
3.0,124.44,48.31,-0.44,124.44,48.31,-0.44,0.42,-0.36,-0.19,-0.81,3.0,316.13,-22.87,-151.13,316.13,-22.87,-151.13,0.1,-0.35,0.88,0.29
3.0,124.44,48.5,-0.31,124.44,48.5,-0.31,0.42,-0.36,-0.19,-0.81,3.0,316.25,-22.19,-151.5,316.25,-22.19,-151.5,0.1,-0.35,0.88,0.29
3.0,124.5,48.69,-0.31,124.5,48.69,-0.31,0.42,-0.36,-0.19,-0.81,3.0,316.38,-21.81,-151.75,316.38,-21.81,-151.75,0.1,-0.35,0.89,0.29
3.0,124.56,48.69,-0.56,124.56,48.69,-0.56,0.42,-0.36,-0.2,-0.81,3.0,316.69,-21.69,-151.94,316.69,-21.69,-151.94,0.1,-0.35,0.89,0.28
3.0,124.62,48.63,-0.69,124.62,48.63,-0.69,0.42,-0.36,-0.2,-0.81,3.0,316.69,-21.62,-152.0,316.69,-21.62,-152.0,0.1,-0.35,0.89,0.28
3.0,124.62,48.56,-0.63,124.62,48.56,-0.63,0.42,-0.36,-0.2,-0.81,3.0,317.0,-21.62,-152.06,317.0,-21.62,-152.06,0.1,-0.35,0.89,0.28
3.0,124.69,48.5,-0.81,124.69,48.5,-0.81,0.42,-0.36,-0.2,-0.81,3.0,317.06,-21.69,-152.19,317.06,-21.69,-152.19,0.1,-0.35,0.89,0.28
3.0,124.81,48.38,-1.06,124.81,48.38,-1.06,0.42,-0.36,-0.2,-0.81,3.0,317.31,-21.75,-152.31,317.31,-21.75,-152.31,0.1,-0.35,0.89,0.28
3.0,124.87,48.25,-1.31,124.87,48.25,-1.31,0.42,-0.36,-0.2,-0.81,3.0,317.5,-21.87,-152.5,317.5,-21.87,-152.5,0.1,-0.35,0.89,0.28
3.0,124.87,48.19,-1.5,124.87,48.19,-1.5,0.42,-0.36,-0.2,-0.81,3.0,317.5,-21.94,-152.56,317.5,-21.94,-152.56,0.1,-0.35,0.89,0.28
3.0,125.0,48.06,-1.56,125.0,48.06,-1.56,0.42,-0.36,-0.2,-0.81,3.0,317.81,-21.87,-152.69,317.81,-21.87,-152.69,0.1,-0.34,0.89,0.28
3.0,125.06,48.0,-1.56,125.06,48.0,-1.56,0.42,-0.36,-0.2,-0.81,3.0,317.88,-21.62,-152.88,317.88,-21.62,-152.88,0.1,-0.34,0.89,0.28
3.0,125.12,47.94,-1.75,125.12,47.94,-1.75,0.42,-0.36,-0.2,-0.81,3.0,318.0,-21.44,-153.06,318.0,-21.44,-153.06,0.1,-0.34,0.89,0.27
3.0,125.12,47.81,-2.0,125.12,47.81,-2.0,0.42,-0.35,-0.2,-0.81,3.0,318.19,-21.25,-153.19,318.19,-21.25,-153.19,0.1,-0.34,0.89,0.27
3.0,125.19,47.69,-2.19,125.19,47.69,-2.19,0.42,-0.35,-0.2,-0.81,3.0,318.19,-20.94,-153.13,318.19,-20.94,-153.13,0.1,-0.34,0.89,0.27
3.0,125.31,47.63,-2.44,125.31,47.63,-2.44,0.42,-0.35,-0.2,-0.81,3.0,318.25,-20.44,-153.0,318.25,-20.44,-153.0,0.09,-0.34,0.9,0.27
3.0,125.44,47.69,-2.44,125.44,47.69,-2.44,0.42,-0.35,-0.2,-0.81,3.0,318.31,-19.87,-152.94,318.31,-19.87,-152.94,0.09,-0.34,0.9,0.27
3.0,125.56,47.81,-2.5,125.56,47.81,-2.5,0.42,-0.35,-0.2,-0.81,3.0,318.38,-19.25,-153.06,318.38,-19.25,-153.06,0.08,-0.34,0.9,0.27
3.0,125.62,47.88,-2.88,125.62,47.88,-2.88,0.42,-0.35,-0.2,-0.81,3.0,318.63,-18.56,-153.44,318.63,-18.56,-153.44,0.08,-0.34,0.9,0.26
3.0,125.69,47.81,-3.13,125.69,47.81,-3.13,0.42,-0.35,-0.2,-0.81,3.0,318.88,-18.06,-154.19,318.88,-18.06,-154.19,0.08,-0.34,0.9,0.26
3.0,125.69,47.69,-3.38,125.69,47.69,-3.38,0.42,-0.35,-0.2,-0.81,3.0,319.19,-18.12,-155.0,319.19,-18.12,-155.0,0.08,-0.34,0.9,0.25
3.0,125.75,47.5,-3.88,125.75,47.5,-3.88,0.42,-0.35,-0.21,-0.81,3.0,319.25,-18.06,-155.56,319.25,-18.06,-155.56,0.08,-0.33,0.91,0.25
3.0,125.75,47.38,-4.31,125.75,47.38,-4.31,0.42,-0.34,-0.21,-0.81,3.0,319.69,-17.75,-155.69,319.69,-17.75,-155.69,0.08,-0.33,0.91,0.24
3.0,125.75,47.31,-4.44,125.75,47.31,-4.44,0.42,-0.34,-0.21,-0.81,3.0,319.81,-17.19,-155.44,319.81,-17.19,-155.44,0.07,-0.33,0.91,0.25
3.0,125.75,47.38,-4.5,125.75,47.38,-4.5,0.42,-0.34,-0.21,-0.81,3.0,319.81,-16.75,-155.13,319.81,-16.75,-155.13,0.07,-0.33,0.91,0.25
3.0,125.81,47.31,-4.69,125.81,47.31,-4.69,0.42,-0.34,-0.21,-0.82,3.0,319.94,-16.31,-154.88,319.94,-16.31,-154.88,0.06,-0.33,0.91,0.25
3.0,125.81,47.06,-4.94,125.81,47.06,-4.94,0.42,-0.34,-0.21,-0.82,3.0,320.0,-16.12,-154.81,320.0,-16.12,-154.81,0.06,-0.33,0.91,0.25
3.0,125.87,46.88,-5.25,125.87,46.88,-5.25,0.42,-0.34,-0.21,-0.82,3.0,320.06,-16.12,-154.94,320.06,-16.12,-154.94,0.06,-0.33,0.91,0.25
3.0,125.94,46.81,-5.5,125.94,46.81,-5.5,0.42,-0.34,-0.21,-0.82,3.0,320.19,-16.06,-155.06,320.19,-16.06,-155.06,0.06,-0.33,0.91,0.25
3.0,125.94,46.88,-5.69,125.94,46.88,-5.69,0.42,-0.34,-0.21,-0.82,3.0,320.13,-15.88,-155.38,320.13,-15.88,-155.38,0.06,-0.33,0.91,0.24
3.0,126.0,47.06,-5.75,126.0,47.06,-5.75,0.42,-0.34,-0.22,-0.82,3.0,320.25,-15.38,-155.88,320.25,-15.38,-155.88,0.06,-0.33,0.91,0.24
3.0,125.94,47.31,-5.69,125.94,47.31,-5.69,0.42,-0.34,-0.22,-0.82,3.0,320.19,-14.75,-156.25,320.19,-14.75,-156.25,0.05,-0.33,0.91,0.23
3.0,125.94,47.44,-5.63,125.94,47.44,-5.63,0.42,-0.34,-0.22,-0.81,3.0,320.19,-14.38,-156.38,320.19,-14.38,-156.38,0.05,-0.33,0.91,0.23
3.0,126.0,47.5,-5.63,126.0,47.5,-5.63,0.41,-0.34,-0.22,-0.81,3.0,320.44,-13.88,-156.38,320.44,-13.88,-156.38,0.05,-0.33,0.91,0.23
3.0,126.0,47.56,-5.63,126.0,47.56,-5.63,0.41,-0.34,-0.22,-0.81,3.0,320.56,-13.31,-156.38,320.56,-13.31,-156.38,0.04,-0.33,0.92,0.23
3.0,126.0,47.56,-5.56,126.0,47.56,-5.56,0.41,-0.34,-0.22,-0.81,3.0,320.75,-13.0,-156.38,320.75,-13.0,-156.38,0.04,-0.33,0.92,0.23
3.0,126.0,47.63,-5.63,126.0,47.63,-5.63,0.41,-0.34,-0.22,-0.81,3.0,320.75,-12.88,-156.56,320.75,-12.88,-156.56,0.04,-0.33,0.92,0.23
3.0,126.06,47.69,-5.56,126.06,47.69,-5.56,0.41,-0.35,-0.22,-0.81,3.0,320.88,-12.69,-156.81,320.88,-12.69,-156.81,0.04,-0.33,0.92,0.22
3.0,126.06,47.88,-5.5,126.06,47.88,-5.5,0.41,-0.35,-0.22,-0.81,3.0,320.94,-12.63,-157.13,320.94,-12.63,-157.13,0.04,-0.33,0.92,0.22
3.0,126.06,48.0,-5.5,126.06,48.0,-5.5,0.41,-0.35,-0.22,-0.81,3.0,320.94,-12.63,-157.38,320.94,-12.63,-157.38,0.04,-0.33,0.92,0.22
3.0,126.06,48.06,-5.56,126.06,48.06,-5.56,0.41,-0.35,-0.22,-0.81,3.0,321.06,-12.75,-157.69,321.06,-12.75,-157.69,0.04,-0.32,0.92,0.22
3.0,126.06,48.0,-5.63,126.06,48.0,-5.63,0.41,-0.35,-0.22,-0.81,3.0,321.06,-12.81,-157.81,321.06,-12.81,-157.81,0.04,-0.32,0.92,0.22
3.0,126.06,47.94,-5.75,126.06,47.94,-5.75,0.41,-0.35,-0.22,-0.81,3.0,321.13,-12.81,-157.88,321.13,-12.81,-157.88,0.05,-0.32,0.92,0.21
3.0,126.12,47.88,-5.81,126.12,47.88,-5.81,0.41,-0.35,-0.22,-0.81,3.0,321.19,-13.0,-157.94,321.19,-13.0,-157.94,0.05,-0.32,0.92,0.21
3.0,126.12,47.81,-5.81,126.12,47.81,-5.81,0.41,-0.34,-0.22,-0.81,3.0,321.25,-13.19,-158.06,321.25,-13.19,-158.06,0.05,-0.32,0.92,0.21
3.0,126.12,47.75,-6.06,126.12,47.75,-6.06,0.41,-0.34,-0.22,-0.81,3.0,321.31,-13.38,-158.06,321.31,-13.38,-158.06,0.05,-0.32,0.92,0.21
3.0,126.12,47.56,-6.5,126.12,47.56,-6.5,0.41,-0.34,-0.22,-0.81,3.0,321.44,-13.5,-158.06,321.44,-13.5,-158.06,0.05,-0.32,0.92,0.22
3.0,126.06,47.44,-6.75,126.06,47.44,-6.75,0.41,-0.34,-0.22,-0.81,3.0,321.94,-13.5,-158.13,321.94,-13.5,-158.13,0.05,-0.32,0.92,0.21
3.0,126.06,47.31,-6.81,126.06,47.31,-6.81,0.41,-0.34,-0.22,-0.82,3.0,321.94,-13.44,-158.13,321.94,-13.44,-158.13,0.05,-0.32,0.92,0.21
3.0,126.06,47.25,-6.94,126.06,47.25,-6.94,0.41,-0.34,-0.22,-0.82,3.0,322.25,-12.94,-158.25,322.25,-12.94,-158.25,0.05,-0.32,0.92,0.21
3.0,126.06,47.19,-7.19,126.06,47.19,-7.19,0.41,-0.34,-0.22,-0.82,3.0,322.69,-12.56,-158.25,322.69,-12.56,-158.25,0.05,-0.31,0.93,0.21
3.0,126.06,47.13,-7.31,126.06,47.13,-7.31,0.41,-0.34,-0.22,-0.82,3.0,322.75,-12.19,-158.19,322.75,-12.19,-158.19,0.04,-0.31,0.93,0.21
3.0,126.06,47.13,-7.25,126.06,47.13,-7.25,0.41,-0.34,-0.22,-0.82,3.0,323.13,-11.63,-158.19,323.13,-11.63,-158.19,0.04,-0.31,0.93,0.21
3.0,126.12,47.13,-7.19,126.12,47.13,-7.19,0.41,-0.34,-0.22,-0.82,3.0,323.19,-11.5,-158.19,323.19,-11.5,-158.19,0.04,-0.31,0.93,0.21
3.0,126.19,47.19,-7.13,126.19,47.19,-7.13,0.41,-0.34,-0.22,-0.82,3.0,323.5,-11.31,-158.25,323.5,-11.31,-158.25,0.04,-0.31,0.93,0.21
3.0,126.19,47.25,-7.0,126.19,47.25,-7.0,0.41,-0.34,-0.22,-0.82,3.0,323.81,-11.19,-158.44,323.81,-11.19,-158.44,0.04,-0.3,0.93,0.21
3.0,126.25,47.38,-6.81,126.25,47.38,-6.81,0.41,-0.34,-0.22,-0.82,3.0,323.81,-11.0,-158.56,323.81,-11.0,-158.56,0.04,-0.3,0.93,0.2
3.0,126.31,47.44,-6.63,126.31,47.44,-6.63,0.41,-0.34,-0.22,-0.82,3.0,324.25,-10.75,-158.63,324.25,-10.75,-158.63,0.03,-0.3,0.93,0.2
3.0,126.37,47.5,-6.63,126.37,47.5,-6.63,0.41,-0.34,-0.22,-0.82,3.0,324.31,-10.56,-158.63,324.31,-10.56,-158.63,0.03,-0.3,0.93,0.2
3.0,126.37,47.56,-6.56,126.37,47.56,-6.56,0.41,-0.34,-0.22,-0.82,3.0,324.75,-10.31,-158.63,324.75,-10.31,-158.63,0.03,-0.3,0.93,0.2
3.0,126.37,47.56,-6.56,126.37,47.56,-6.56,0.41,-0.34,-0.22,-0.82,3.0,325.06,-10.19,-158.63,325.06,-10.19,-158.63,0.03,-0.29,0.93,0.2
3.0,126.44,47.56,-6.56,126.44,47.56,-6.56,0.41,-0.34,-0.22,-0.82,3.0,325.06,-10.25,-158.63,325.06,-10.25,-158.63,0.03,-0.29,0.93,0.2
3.0,126.44,47.63,-6.5,126.44,47.63,-6.5,0.41,-0.34,-0.22,-0.82,3.0,325.31,-10.31,-158.88,325.31,-10.31,-158.88,0.03,-0.29,0.93,0.2
3.0,126.44,47.69,-6.5,126.44,47.69,-6.5,0.41,-0.34,-0.22,-0.82,3.0,325.13,-10.5,-159.44,325.13,-10.5,-159.44,0.04,-0.29,0.94,0.19
3.0,126.44,47.75,-6.44,126.44,47.75,-6.44,0.41,-0.34,-0.22,-0.82,3.0,325.06,-10.81,-160.38,325.06,-10.81,-160.38,0.04,-0.3,0.94,0.19
3.0,126.5,47.88,-6.38,126.5,47.88,-6.38,0.41,-0.34,-0.22,-0.82,3.0,324.94,-10.75,-161.38,324.94,-10.75,-161.38,0.04,-0.3,0.94,0.18
3.0,126.5,47.81,-6.56,126.5,47.81,-6.56,0.41,-0.34,-0.22,-0.82,3.0,324.81,-10.38,-162.19,324.81,-10.38,-162.19,0.04,-0.3,0.94,0.17
3.0,126.5,47.81,-6.63,126.5,47.81,-6.63,0.41,-0.34,-0.22,-0.82,3.0,325.13,-9.75,-162.5,325.13,-9.75,-162.5,0.04,-0.29,0.94,0.17
3.0,126.56,47.81,-6.56,126.56,47.81,-6.56,0.41,-0.34,-0.22,-0.82,3.0,325.31,-9.38,-162.06,325.31,-9.38,-162.06,0.03,-0.29,0.94,0.17
3.0,126.62,47.88,-6.63,126.62,47.88,-6.63,0.41,-0.34,-0.22,-0.82,3.0,326.13,-8.88,-161.25,326.13,-8.88,-161.25,0.03,-0.29,0.94,0.18
3.0,126.69,48.0,-6.25,126.69,48.0,-6.25,0.41,-0.35,-0.22,-0.82,3.0,326.63,-8.13,-160.88,326.63,-8.13,-160.88,0.02,-0.28,0.94,0.18
3.0,126.69,48.13,-5.75,126.69,48.13,-5.75,0.41,-0.35,-0.22,-0.82,3.0,326.81,-7.19,-160.69,326.81,-7.19,-160.69,0.01,-0.28,0.94,0.18
3.0,126.75,48.13,-5.69,126.75,48.13,-5.69,0.41,-0.35,-0.22,-0.82,3.0,327.13,-6.38,-160.75,327.13,-6.38,-160.75,0.01,-0.28,0.94,0.17
3.0,126.81,48.13,-5.63,126.81,48.13,-5.63,0.41,-0.35,-0.21,-0.82,3.0,327.06,-6.06,-161.0,327.06,-6.06,-161.0,0.01,-0.28,0.95,0.17
3.0,126.81,48.19,-5.38,126.81,48.19,-5.38,0.41,-0.35,-0.21,-0.82,3.0,327.19,-5.94,-161.63,327.19,-5.94,-161.63,0.01,-0.28,0.95,0.17
3.0,126.87,48.19,-5.06,126.87,48.19,-5.06,0.41,-0.35,-0.21,-0.82,3.0,327.44,-5.75,-161.94,327.44,-5.75,-161.94,0.0,-0.28,0.95,0.16
3.0,126.87,48.19,-5.19,126.87,48.19,-5.19,0.41,-0.35,-0.21,-0.82,3.0,327.44,-5.13,-161.94,327.44,-5.13,-161.94,-0.0,-0.28,0.95,0.16
3.0,126.94,48.13,-5.5,126.94,48.13,-5.5,0.41,-0.35,-0.21,-0.82,3.0,327.44,-4.44,-161.69,327.44,-4.44,-161.69,-0.01,-0.28,0.95,0.16
3.0,127.06,48.19,-5.31,127.06,48.19,-5.31,0.41,-0.35,-0.21,-0.82,3.0,327.19,-3.69,-161.06,327.19,-3.69,-161.06,-0.02,-0.28,0.95,0.17
3.0,127.06,48.31,-5.0,127.06,48.31,-5.0,0.41,-0.35,-0.21,-0.82,3.0,327.25,-3.25,-160.38,327.25,-3.25,-160.38,-0.02,-0.28,0.94,0.17
3.0,127.12,48.44,-4.69,127.12,48.44,-4.69,0.41,-0.35,-0.21,-0.82,3.0,327.25,-3.13,-160.06,327.25,-3.13,-160.06,-0.02,-0.28,0.94,0.17
3.0,127.19,48.5,-4.56,127.19,48.5,-4.56,0.4,-0.36,-0.21,-0.82,3.0,327.31,-2.69,-160.19,327.31,-2.69,-160.19,-0.03,-0.28,0.95,0.17
3.0,127.25,48.44,-4.56,127.25,48.44,-4.56,0.4,-0.36,-0.21,-0.82,3.0,327.56,-2.31,-160.94,327.56,-2.31,-160.94,-0.02,-0.27,0.95,0.16
3.0,127.31,48.44,-4.5,127.31,48.44,-4.5,0.4,-0.36,-0.21,-0.82,3.0,327.63,-2.44,-161.69,327.63,-2.44,-161.69,-0.02,-0.27,0.95,0.16
3.0,127.31,48.38,-4.44,127.31,48.38,-4.44,0.4,-0.36,-0.21,-0.82,3.0,327.94,-2.44,-161.94,327.94,-2.44,-161.94,-0.02,-0.27,0.95,0.16
3.0,127.37,48.38,-4.56,127.37,48.38,-4.56,0.4,-0.35,-0.21,-0.82,3.0,328.19,-2.25,-161.81,328.19,-2.25,-161.81,-0.02,-0.27,0.95,0.16
3.0,127.44,48.38,-4.5,127.44,48.38,-4.5,0.4,-0.36,-0.21,-0.82,3.0,328.13,-1.94,-161.38,328.13,-1.94,-161.38,-0.03,-0.27,0.95,0.16
3.0,127.44,48.38,-4.25,127.44,48.38,-4.25,0.4,-0.36,-0.21,-0.82,3.0,328.13,-1.63,-161.0,328.13,-1.63,-161.0,-0.03,-0.27,0.95,0.16
3.0,127.44,48.44,-4.06,127.44,48.44,-4.06,0.4,-0.36,-0.21,-0.82,3.0,328.13,-1.25,-160.94,328.13,-1.25,-160.94,-0.03,-0.27,0.95,0.16
3.0,127.44,48.44,-4.19,127.44,48.44,-4.19,0.4,-0.36,-0.21,-0.82,3.0,328.06,-1.0,-161.19,328.06,-1.0,-161.19,-0.04,-0.27,0.95,0.16
3.0,127.44,48.38,-4.25,127.44,48.38,-4.25,0.4,-0.36,-0.21,-0.82,3.0,327.94,-0.94,-161.31,327.94,-0.94,-161.31,-0.04,-0.27,0.95,0.16
3.0,127.44,48.38,-4.38,127.44,48.38,-4.38,0.4,-0.36,-0.21,-0.82,3.0,327.81,-0.69,-161.31,327.81,-0.69,-161.31,-0.04,-0.27,0.95,0.16
3.0,127.5,48.44,-4.44,127.5,48.44,-4.44,0.4,-0.36,-0.21,-0.82,3.0,327.81,-0.37,-161.19,327.81,-0.37,-161.19,-0.04,-0.27,0.95,0.16
3.0,127.5,48.38,-4.38,127.5,48.38,-4.38,0.4,-0.36,-0.21,-0.82,3.0,327.75,-0.19,-160.56,327.75,-0.19,-160.56,-0.04,-0.27,0.95,0.16
3.0,127.56,48.5,-4.19,127.56,48.5,-4.19,0.4,-0.36,-0.21,-0.82,3.0,327.81,0.0,-160.31,327.81,0.0,-160.31,-0.05,-0.27,0.95,0.16
3.0,127.5,48.69,-3.88,127.5,48.69,-3.88,0.4,-0.36,-0.2,-0.82,3.0,327.81,0.06,-159.94,327.81,0.06,-159.94,-0.05,-0.27,0.95,0.17
3.0,127.5,48.81,-3.88,127.5,48.81,-3.88,0.4,-0.36,-0.21,-0.82,3.0,327.88,0.25,-159.75,327.88,0.25,-159.75,-0.05,-0.27,0.95,0.17
3.0,127.56,48.75,-3.88,127.56,48.75,-3.88,0.4,-0.36,-0.2,-0.82,3.0,327.88,0.37,-159.88,327.88,0.37,-159.88,-0.05,-0.27,0.95,0.17
3.0,127.62,48.69,-3.81,127.62,48.69,-3.81,0.4,-0.36,-0.2,-0.82,3.0,327.88,0.44,-160.0,327.88,0.44,-160.0,-0.05,-0.27,0.95,0.17
3.0,127.62,48.75,-3.75,127.62,48.75,-3.75,0.4,-0.36,-0.2,-0.82,3.0,327.94,0.5,-160.06,327.94,0.5,-160.06,-0.05,-0.27,0.95,0.16
3.0,127.62,48.81,-3.56,127.62,48.81,-3.56,0.4,-0.36,-0.2,-0.82,3.0,327.94,0.56,-160.25,327.94,0.56,-160.25,-0.05,-0.27,0.95,0.16
3.0,127.62,48.94,-3.38,127.62,48.94,-3.38,0.4,-0.36,-0.2,-0.82,3.0,328.0,0.63,-160.5,328.0,0.63,-160.5,-0.05,-0.27,0.95,0.16
3.0,127.69,48.88,-3.38,127.69,48.88,-3.38,0.4,-0.36,-0.2,-0.82,3.0,327.94,0.5,-160.38,327.94,0.5,-160.38,-0.05,-0.27,0.95,0.16
3.0,127.69,48.81,-3.44,127.69,48.81,-3.44,0.4,-0.36,-0.2,-0.82,3.0,327.94,0.5,-160.19,327.94,0.5,-160.19,-0.05,-0.27,0.95,0.16
3.0,127.75,48.75,-3.31,127.75,48.75,-3.31,0.4,-0.36,-0.2,-0.82,3.0,327.94,0.37,-160.06,327.94,0.37,-160.06,-0.05,-0.27,0.95,0.17
3.0,127.75,48.81,-3.31,127.75,48.81,-3.31,0.4,-0.36,-0.2,-0.82,3.0,327.94,0.25,-160.13,327.94,0.25,-160.13,-0.05,-0.27,0.95,0.16
3.0,127.75,48.88,-3.31,127.75,48.88,-3.31,0.4,-0.36,-0.2,-0.82,3.0,327.94,0.19,-160.31,327.94,0.19,-160.31,-0.05,-0.27,0.95,0.16
3.0,127.69,48.88,-3.31,127.69,48.88,-3.31,0.4,-0.36,-0.2,-0.82,3.0,327.94,0.12,-160.31,327.94,0.12,-160.31,-0.05,-0.27,0.95,0.16
3.0,127.69,48.88,-3.38,127.69,48.88,-3.38,0.4,-0.36,-0.2,-0.82,3.0,327.94,0.12,-160.19,327.94,0.12,-160.19,-0.05,-0.27,0.95,0.16
3.0,127.69,48.88,-3.31,127.69,48.88,-3.31,0.4,-0.36,-0.2,-0.82,3.0,327.94,0.12,-160.06,327.94,0.12,-160.06,-0.05,-0.27,0.95,0.17
3.0,127.69,48.88,-3.25,127.69,48.88,-3.25,0.4,-0.36,-0.2,-0.82,3.0,327.88,0.06,-160.0,327.88,0.06,-160.0,-0.05,-0.27,0.95,0.17
3.0,127.69,49.0,-3.25,127.69,49.0,-3.25,0.4,-0.36,-0.2,-0.82,3.0,327.88,0.0,-160.0,327.88,0.0,-160.0,-0.05,-0.27,0.95,0.17
